timestamp	roll	pitch	yaw	acceleration x	acceleration y	acceleration z	compass x	compass y	compass z	temperature	humidity	altitude
1551549832383.594	178.94	-0.66	9.41	0.01	0.02	-1.03	13.54	2.41	-10.3	
1551549832395.642	178.94	-0.67	9.41	0.01	0.02	-1.03	24.37	4.35	-18.54	
1551549832407.69	178.94	-0.67	9.42	0.01	0.02	-1.03	33.32	6.03	-25.0	
1551549832419.738	178.95	-0.67	9.42	0.01	0.02	-1.03	40.48	7.38	-30.16	
1551549832431.786	178.95	-0.67	9.42	0.01	0.02	-1.03	46.2	8.18	-34.43	
1551549832443.834	178.95	-0.67	9.42	0.01	0.02	-1.03	50.78	8.82	-37.84	
1551549832455.882	178.95	-0.67	9.42	0.01	0.02	-1.03	54.45	9.75	-40.58	
1551549832467.93	178.95	-0.67	9.43	0.01	0.02	-1.03	57.38	10.5	-42.76	
1551549832479.978	178.95	-0.67	9.43	0.01	0.02	-1.03	59.59	10.81	-44.51	
1551549832492.026	178.95	-0.67	9.44	0.01	0.02	-1.03	61.35	11.07	-45.91	
1551549832504.074	178.95	-0.68	9.43	0.01	0.02	-1.03	62.76	10.98	-47.3	
1551549832516.122	178.95	-0.68	9.42	0.01	0.02	-1.03	63.89	10.92	-48.42	
1551549832528.17	178.95	-0.68	9.41	0.01	0.02	-1.03	64.65	10.58	-48.9	
1551549832540.218	178.95	-0.68	9.39	0.01	0.02	-1.03	65.26	10.31	-49.28	
1551549832552.266	178.95	-0.68	9.37	0.01	0.02	-1.03	65.88	10.52	-49.73	
1551549832564.314	178.95	-0.68	9.35	0.01	0.02	-1.03	66.39	10.69	-50.08	
1551549832576.362	178.95	-0.68	9.34	0.01	0.02	-1.03	66.65	11.39	-50.23	
1551549832588.41	178.94	-0.67	9.34	0.01	0.02	-1.03	66.86	11.95	-50.35	
1551549832600.458	178.94	-0.68	9.34	0.01	0.02	-1.03	67.16	11.84	-50.58	
1551549832612.506	178.94	-0.68	9.34	0.01	0.02	-1.03	67.41	11.74	-50.76	
1551549832624.554	178.94	-0.68	9.34	0.01	0.02	-1.03	67.75	11.95	-50.91	
1551549832636.602	178.95	-0.68	9.34	0.01	0.02	-1.03	68.02	12.12	-51.03	
1551549832648.65	178.94	-0.68	9.34	0.01	0.02	-1.03	67.96	12.25	-51.12	
1551549832660.698	178.94	-0.68	9.35	0.01	0.02	-1.03	67.9	12.36	-51.2	
1551549832672.746	178.95	-0.68	9.35	0.01	0.02	-1.03	68.0	12.3	-51.4	
1551549832684.794	178.95	-0.68	9.36	0.01	0.02	-1.03	68.08	12.25	-51.56	
1551549832696.842	178.95	-0.68	9.36	0.01	0.02	-1.03	68.29	12.36	-51.41	
1551549832708.89	178.95	-0.68	9.37	0.01	0.02	-1.02	68.45	12.44	-51.29	
1551549832720.938	178.95	-0.68	9.37	0.01	0.02	-1.03	68.44	12.37	-51.47	
1551549832732.986	178.95	-0.69	9.38	0.01	0.02	-1.03	68.43	12.31	-51.61	
1551549832745.034	178.95	-0.69	9.38	0.01	0.02	-1.03	68.57	11.98	-51.32	
1551549832757.082	178.96	-0.69	9.37	0.01	0.02	-1.03	68.68	11.71	-51.08	
1551549832769.13	178.96	-0.69	9.37	0.01	0.02	-1.03	68.48	11.79	-51.3	
1551549832781.178	178.96	-0.69	9.37	0.01	0.02	-1.03	68.32	11.84	-51.48	
1551549832793.226	178.96	-0.69	9.36	0.01	0.02	-1.03	68.19	11.75	-51.76	
1551549832805.274	178.96	-0.69	9.35	0.01	0.02	-1.02	68.09	11.67	-51.98	
1551549832817.322	178.96	-0.69	9.35	0.01	0.02	-1.03	68.44	11.89	-51.89	
1551549832829.37	178.96	-0.7	9.35	0.01	0.02	-1.03	68.72	12.07	-51.81	
1551549832841.418	178.96	-0.7	9.35	0.01	0.02	-1.03	69.08	12.36	-51.89	
1551549832853.466	178.96	-0.7	9.36	0.01	0.02	-1.03	69.37	12.58	-51.95	
1551549832865.514	178.96	-0.7	9.36	0.01	0.02	-1.03	69.32	12.34	-51.86	
1551549832877.562	178.96	-0.7	9.36	0.01	0.02	-1.03	69.28	12.14	-51.79	
1551549832889.61	178.96	-0.7	9.36	0.01	0.02	-1.03	69.53	11.99	-51.87	
1551549832901.658	178.96	-0.7	9.35	0.01	0.02	-1.03	69.73	11.86	-51.93	
1551549832913.706	178.96	-0.7	9.34	0.01	0.02	-1.03	69.47	12.05	-51.85	
1551549832925.754	178.96	-0.7	9.34	0.01	0.02	-1.03	69.25	12.19	-51.78	
1551549832937.802	178.96	-0.7	9.34	0.01	0.02	-1.03	69.22	12.31	-51.59	
1551549832949.85	178.96	-0.7	9.35	0.01	0.02	-1.03	69.2	12.41	-51.43	
1551549832961.898	178.96	-0.7	9.35	0.01	0.02	-1.03	69.04	12.48	-51.72	
1551549832973.946	178.96	-0.7	9.36	0.01	0.02	-1.03	68.91	12.54	-51.95	
1551549832985.994	178.96	-0.7	9.36	0.01	0.02	-1.03	69.24	12.31	-52.14	
1551549832998.042	178.96	-0.7	9.35	0.01	0.02	-1.03	69.5	12.12	-52.29	
1551549833010.09	178.96	-0.7	9.35	0.01	0.02	-1.03	69.28	12.11	-52.13	
1551549833022.138	178.96	-0.7	9.35	0.01	0.02	-1.03	69.1	12.1	-52.0	
1551549833034.186	178.96	-0.7	9.35	0.01	0.02	-1.03	68.82	12.1	-51.9	
1551549833046.234	178.96	-0.7	9.35	0.01	0.02	-1.03	68.59	12.09	-51.82	
1551549833058.282	178.96	-0.7	9.35	0.01	0.02	-1.03	68.55	11.95	-51.62	
1551549833070.33	178.96	-0.71	9.35	0.02	0.02	-1.03	68.52	11.83	-51.46	
1551549833082.378	178.97	-0.7	9.34	0.01	0.02	-1.03	68.36	11.88	-51.74	
1551549833094.426	178.97	-0.7	9.34	0.01	0.02	-1.03	68.22	11.92	-51.97	
1551549833106.474	178.97	-0.7	9.34	0.01	0.02	-1.03	68.69	12.09	-51.74	
1551549833118.522	178.97	-0.7	9.34	0.01	0.02	-1.03	69.06	12.23	-51.56	
1551549833130.57	178.96	-0.7	9.34	0.01	0.02	-1.02	69.07	12.34	-51.55	
1551549833142.618	178.96	-0.71	9.35	0.01	0.02	-1.03	69.08	12.43	-51.54	
1551549833154.666	178.96	-0.7	9.35	0.01	0.02	-1.03	68.94	12.21	-51.53	
1551549833166.714	178.96	-0.71	9.35	0.02	0.02	-1.03	68.83	12.04	-51.53	
1551549833178.762	178.96	-0.71	9.35	0.02	0.02	-1.03	68.75	12.19	-51.52	
1551549833190.81	178.96	-0.71	9.35	0.01	0.02	-1.03	68.68	12.31	-51.52	
1551549833202.858	178.96	-0.71	9.35	0.01	0.02	-1.03	68.62	12.4	-51.24	
1551549833214.906	178.96	-0.71	9.36	0.01	0.02	-1.03	68.58	12.48	-51.02	
1551549833226.954	178.96	-0.71	9.36	0.01	0.02	-1.03	68.68	12.26	-50.98	
1551549833239.002	178.96	-0.71	9.36	0.01	0.02	-1.03	68.77	12.08	-50.95	
1551549833251.05	178.96	-0.71	9.36	0.01	0.02	-1.03	68.98	12.22	-51.19	
1551549833263.098	178.96	-0.71	9.36	0.01	0.02	-1.03	69.15	12.33	-51.39	
1551549833275.146	178.96	-0.71	9.37	0.01	0.02	-1.03	69.14	12.42	-51.55	
1551549833287.194	178.96	-0.71	9.37	0.01	0.02	-1.03	69.14	12.49	-51.68	
1551549833299.242	178.97	-0.71	9.38	0.01	0.02	-1.03	69.13	12.55	-51.65	
1551549833311.29	178.97	-0.71	9.38	0.01	0.02	-1.03	69.13	12.6	-51.62	
1551549833323.338	178.97	-0.72	9.39	0.01	0.02	-1.02	69.12	12.63	-51.73	
1551549833335.386	178.97	-0.72	9.4	0.02	0.02	-1.02	69.12	12.66	-51.82	
1551549833347.434	178.97	-0.72	9.4	0.01	0.02	-1.03	69.12	12.55	-52.03	
1551549833359.482	178.97	-0.72	9.41	0.01	0.02	-1.03	69.12	12.45	-52.2	
1551549833371.53	178.97	-0.72	9.41	0.01	0.02	-1.03	69.26	12.38	-52.06	
1551549833383.578	178.97	-0.72	9.41	0.01	0.02	-1.02	69.37	12.32	-51.95	
1551549833395.626	178.97	-0.72	9.41	0.01	0.02	-1.03	69.04	12.55	-52.0	
1551549833407.674	178.97	-0.72	9.42	0.01	0.02	-1.03	68.77	12.74	-52.04	
1551549833419.722	178.97	-0.72	9.42	0.01	0.02	-1.03	68.69	12.32	-51.93	
1551549833431.77	178.97	-0.72	9.42	0.01	0.02	-1.03	68.63	11.99	-51.85	
1551549833443.818	178.97	-0.72	9.42	0.01	0.02	-1.03	68.3	12.15	-51.78	
1551549833455.866	178.97	-0.72	9.42	0.01	0.02	-1.03	68.04	12.27	-51.72	
1551549833467.914	178.96	-0.72	9.42	0.02	0.02	-1.03	68.25	12.23	-51.54	
1551549833479.962	178.96	-0.72	9.42	0.01	0.02	-1.03	68.42	12.2	-51.4	
1551549833492.01	178.96	-0.73	9.42	0.01	0.02	-1.03	68.56	12.32	-51.42	
1551549833504.058	178.96	-0.72	9.42	0.01	0.02	-1.03	68.67	12.41	-51.44	
1551549833516.106	178.96	-0.72	9.43	0.01	0.02	-1.03	69.05	12.34	-51.45	
1551549833528.154	178.96	-0.72	9.42	0.01	0.02	-1.03	69.34	12.29	-51.46	
1551549833540.202	178.97	-0.72	9.42	0.01	0.02	-1.03	69.15	12.1	-51.47	
1551549833552.25	178.97	-0.72	9.42	0.01	0.02	-1.03	69.0	11.96	-51.48	
1551549833564.298	178.97	-0.72	9.42	0.01	0.02	-1.03	69.03	12.12	-51.62	
1551549833576.346	178.96	-0.72	9.41	0.01	0.02	-1.01	69.04	12.25	-51.73	
1551549833588.394	178.96	-0.73	9.42	0.02	0.02	-1.02	69.06	12.36	-51.82	
1551549833600.442	178.96	-0.73	9.42	0.02	0.02	-1.03	69.07	12.44	-51.9	
1551549833612.49	178.96	-0.73	9.42	0.01	0.02	-1.04	69.08	12.37	-51.82	
1551549833624.538	178.96	-0.73	9.42	0.01	0.02	-1.03	69.08	12.31	-51.76	
1551549833636.586	178.96	-0.73	9.42	0.02	0.02	-1.02	68.8	12.4	-51.71	
1551549833648.634	178.96	-0.73	9.43	0.02	0.02	-1.03	68.58	12.48	-51.67	
1551549833660.682	178.96	-0.73	9.43	0.01	0.02	-1.03	68.83	12.4	-51.77	
1551549833672.73	178.96	-0.74	9.43	0.02	0.02	-1.03	69.03	12.33	-51.85	
1551549833684.778	178.96	-0.74	9.43	0.01	0.02	-1.03	69.19	12.42	-51.78	
1551549833696.826	178.96	-0.73	9.43	0.01	0.02	-1.03	69.32	12.5	-51.73	
1551549833708.874	178.96	-0.74	9.43	0.02	0.02	-1.02	69.27	12.41	-51.82	
1551549833720.922	178.96	-0.74	9.43	0.01	0.02	-1.02	69.24	12.34	-51.89	
1551549833732.97	178.96	-0.74	9.43	0.01	0.02	-1.03	69.07	12.29	-52.09	
1551549833745.018	178.96	-0.74	9.43	0.01	0.02	-1.02	68.94	12.25	-52.25	
1551549833757.066	178.96	-0.74	9.44	0.01	0.02	-1.03	68.69	12.64	-51.96	
1551549833769.114	178.97	-0.74	9.46	0.01	0.02	-1.03	68.49	12.95	-51.73	
1551549833781.162	178.97	-0.74	9.47	0.01	0.02	-1.03	68.47	13.2	-51.55	
1551549833793.21	178.97	-0.74	9.49	0.01	0.02	-1.03	68.46	13.4	-51.4	
1551549833805.258	178.96	-0.73	9.5	0.01	0.02	-1.04	68.59	13.14	-51.29	
1551549833817.306	178.97	-0.72	9.51	0.01	0.02	-1.03	68.69	12.92	-51.19	
1551549833829.354	178.97	-0.73	9.52	0.01	0.02	-1.03	68.63	12.47	-51.12	
1551549833841.402	178.97	-0.73	9.52	0.02	0.02	-1.02	68.59	12.11	-51.06	
1551549833853.45	178.97	-0.73	9.51	0.01	0.02	-1.03	68.69	11.96	-51.28	
1551549833865.498	178.97	-0.73	9.51	0.01	0.02	-1.03	68.78	11.84	-51.47	
1551549833877.546	178.98	-0.73	9.5	0.01	0.02	-1.03	68.7	11.74	-51.75	
1551549833889.594	178.98	-0.73	9.49	0.01	0.02	-1.03	68.64	11.67	-51.97	
1551549833901.642	178.98	-0.73	9.48	0.01	0.02	-1.03	68.45	11.61	-51.74	
1551549833913.69	178.97	-0.73	9.47	0.02	0.02	-1.03	68.3	11.56	-51.56	
1551549833925.738	178.97	-0.74	9.45	0.01	0.02	-1.02	68.75	11.52	-51.68	
1551549833937.786	178.97	-0.74	9.44	0.02	0.02	-1.02	69.1	11.49	-51.79	
1551549833949.834	178.97	-0.74	9.43	0.01	0.02	-1.03	68.82	11.6	-51.87	
1551549833961.882	178.97	-0.74	9.42	0.01	0.02	-1.03	68.59	11.7	-51.93	
1551549833973.93	178.97	-0.73	9.42	0.01	0.02	-1.03	68.7	11.91	-51.98	
1551549833985.978	178.97	-0.74	9.41	0.01	0.02	-1.03	68.78	12.09	-52.02	
1551549833998.026	178.97	-0.73	9.41	0.01	0.02	-1.03	68.7	12.23	-52.2	
1551549834010.074	178.97	-0.74	9.41	0.01	0.02	-1.03	68.64	12.34	-52.33	
1551549834022.122	178.97	-0.74	9.41	0.01	0.02	-1.03	68.45	12.14	-52.44	
1551549834034.17	178.97	-0.74	9.41	0.01	0.02	-1.03	68.3	11.99	-52.53	
1551549834046.218	178.97	-0.74	9.4	0.01	0.02	-1.02	68.46	11.86	-52.19	
1551549834058.266	178.97	-0.74	9.4	0.01	0.02	-1.02	68.59	11.76	-51.91	
1551549834070.314	178.97	-0.74	9.39	0.02	0.02	-1.02	68.55	11.54	-51.97	
1551549834082.362	178.97	-0.74	9.37	0.01	0.02	-1.03	68.52	11.36	-52.01	
1551549834094.41	178.97	-0.74	9.37	0.01	0.02	-1.03	68.64	11.79	-52.05	
1551549834106.458	178.97	-0.74	9.37	0.01	0.02	-1.03	68.74	12.13	-52.08	
1551549834118.506	178.97	-0.74	9.37	0.01	0.02	-1.03	68.67	12.12	-51.82	
1551549834130.554	178.97	-0.74	9.37	0.01	0.02	-1.03	68.61	12.11	-51.62	
1551549834142.602	178.98	-0.74	9.38	0.01	0.02	-1.03	68.71	12.39	-51.74	
1551549834154.65	178.98	-0.74	9.38	0.01	0.02	-1.03	68.79	12.61	-51.83	
1551549834166.698	178.98	-0.74	9.39	0.01	0.02	-1.03	68.86	12.64	-52.04	
1551549834178.746	178.98	-0.74	9.4	0.01	0.02	-1.02	68.91	12.67	-52.21	
1551549834190.794	178.97	-0.74	9.4	0.01	0.02	-1.03	68.81	12.41	-52.2	
1551549834202.842	178.97	-0.74	9.4	0.01	0.02	-1.03	68.73	12.2	-52.2	
1551549834214.89	178.97	-0.74	9.4	0.01	0.02	-1.03	68.8	12.17	-52.2	
1551549834226.938	178.98	-0.75	9.4	0.01	0.02	-1.03	68.86	12.15	-52.2	
1551549834238.986	178.98	-0.75	9.4	0.02	0.02	-1.03	68.77	12.42	-52.2	
1551549834251.034	178.98	-0.74	9.41	0.01	0.02	-1.03	68.7	12.64	-52.19	
1551549834263.082	178.98	-0.75	9.41	0.01	0.02	-1.02	68.64	12.24	-52.33	
1551549834275.13	178.98	-0.75	9.4	0.02	0.02	-1.03	68.59	11.92	-52.44	
1551549834287.178	178.98	-0.75	9.4	0.01	0.02	-1.03	68.41	11.95	-51.98	
1551549834299.226	178.98	-0.75	9.4	0.01	0.02	-1.03	68.27	11.98	-51.61	
1551549834311.274	178.98	-0.75	9.4	0.01	0.02	-1.03	68.43	12.14	-51.73	
1551549834323.322	178.98	-0.74	9.4	0.01	0.02	-1.02	68.57	12.27	-51.82	
1551549834335.37	178.98	-0.74	9.4	0.01	0.02	-1.03	68.39	11.94	-51.89	
1551549834347.418	178.98	-0.74	9.39	0.01	0.02	-1.03	68.25	11.69	-51.95	
1551549834359.466	178.98	-0.75	9.39	0.01	0.02	-1.03	68.14	12.05	-51.86	
1551549834371.514	178.98	-0.75	9.39	0.01	0.02	-1.03	68.05	12.34	-51.79	
1551549834383.562	178.97	-0.75	9.39	0.01	0.02	-1.03	68.12	12.28	-51.73	
1551549834395.61	178.97	-0.75	9.4	0.01	0.02	-1.03	68.18	12.24	-51.69	
1551549834407.658	178.97	-0.75	9.4	0.01	0.02	-1.03	68.36	12.21	-51.65	
1551549834419.706	178.97	-0.75	9.4	0.01	0.02	-1.03	68.51	12.18	-51.62	
1551549834431.754	178.97	-0.74	9.4	0.01	0.02	-1.03	68.63	12.16	-51.87	
1551549834443.802	178.97	-0.74	9.4	0.01	0.02	-1.03	68.73	12.14	-52.07	
1551549834455.85	178.97	-0.74	9.4	0.01	0.02	-1.03	68.81	12.13	-52.1	
1551549834467.898	178.98	-0.74	9.4	0.01	0.01	-1.03	68.87	12.12	-52.12	
1551549834479.946	178.98	-0.74	9.39	0.01	0.02	-1.03	68.77	11.97	-52.13	
1551549834491.994	178.98	-0.74	9.39	0.01	0.02	-1.03	68.7	11.85	-52.14	
1551549834504.042	178.98	-0.75	9.38	0.01	0.02	-1.03	68.5	11.75	-52.15	
1551549834516.09	178.98	-0.75	9.38	0.01	0.02	-1.02	68.33	11.67	-52.16	
1551549834528.138	178.98	-0.75	9.37	0.01	0.02	-1.03	68.21	11.47	-52.03	
1551549834540.186	178.98	-0.75	9.35	0.01	0.02	-1.03	68.1	11.3	-51.92	
1551549834552.234	178.98	-0.75	9.34	0.01	0.02	-1.03	68.16	11.46	-51.57	
1551549834564.282	178.98	-0.75	9.34	0.01	0.02	-1.03	68.21	11.58	-51.28	
1551549834576.33	178.98	-0.75	9.33	0.01	0.02	-1.03	68.1	11.54	-51.32	
1551549834588.378	178.98	-0.75	9.32	0.01	0.02	-1.03	68.02	11.5	-51.36	
1551549834600.426	178.98	-0.75	9.31	0.01	0.02	-1.03	68.1	11.47	-51.53	
1551549834612.474	178.98	-0.75	9.3	0.01	0.02	-1.03	68.16	11.45	-51.66	
1551549834624.522	178.97	-0.75	9.29	0.01	0.02	-1.03	68.21	11.58	-51.77	
1551549834636.57	178.97	-0.75	9.29	0.01	0.02	-1.03	68.24	11.68	-51.85	
1551549834648.618	178.97	-0.75	9.29	0.01	0.02	-1.03	68.56	11.9	-51.92	
1551549834660.666	178.98	-0.75	9.29	0.01	0.02	-1.03	68.81	12.07	-51.97	
1551549834672.714	178.98	-0.74	9.28	0.01	0.02	-1.03	68.73	11.93	-51.74	
1551549834684.762	178.97	-0.74	9.28	0.01	0.02	-1.03	68.66	11.82	-51.56	
1551549834696.81	178.97	-0.75	9.27	0.02	0.02	-1.03	68.75	11.73	-51.55	
1551549834708.858	178.97	-0.75	9.27	0.01	0.02	-1.03	68.83	11.65	-51.54	
1551549834720.906	178.97	-0.75	9.26	0.01	0.02	-1.03	68.88	11.74	-51.53	
1551549834732.954	178.97	-0.75	9.26	0.01	0.02	-1.03	68.93	11.8	-51.53	
1551549834745.002	178.97	-0.74	9.25	0.01	0.02	-1.03	68.82	11.72	-51.52	
1551549834757.05	178.97	-0.75	9.24	0.02	0.02	-1.03	68.74	11.65	-51.52	
1551549834769.098	178.97	-0.75	9.24	0.01	0.02	-1.03	68.53	11.73	-51.65	
1551549834781.146	178.97	-0.75	9.24	0.01	0.02	-1.03	68.36	11.8	-51.76	
1551549834793.194	178.97	-0.74	9.23	0.01	0.02	-1.03	68.23	11.57	-51.57	
1551549834805.242	178.97	-0.74	9.22	0.01	0.02	-1.03	68.12	11.39	-51.42	
1551549834817.29	178.97	-0.74	9.22	0.01	0.02	-1.03	68.32	11.52	-51.44	
1551549834829.338	178.97	-0.74	9.21	0.01	0.02	-1.03	68.48	11.63	-51.45	
1551549834841.386	178.97	-0.74	9.21	0.01	0.02	-1.03	68.75	11.72	-51.6	
1551549834853.434	178.97	-0.74	9.21	0.01	0.02	-1.03	68.96	11.79	-51.72	
1551549834865.482	178.97	-0.74	9.2	0.01	0.02	-1.03	68.56	11.71	-51.81	
1551549834877.53	178.97	-0.74	9.2	0.01	0.02	-1.02	68.25	11.64	-51.89	
1551549834889.578	178.97	-0.74	9.19	0.02	0.02	-1.03	68.42	11.72	-51.81	
1551549834901.626	178.97	-0.74	9.19	0.01	0.02	-1.02	68.56	11.79	-51.75	
1551549834913.674	178.97	-0.74	9.19	0.01	0.02	-1.03	68.67	11.85	-51.7	
1551549834925.722	178.96	-0.74	9.19	0.01	0.02	-1.03	68.76	11.89	-51.66	
1551549834937.77	178.97	-0.74	9.19	0.01	0.02	-1.03	68.54	11.93	-51.63	
1551549834949.818	178.97	-0.73	9.19	0.01	0.02	-1.03	68.37	11.96	-51.6	
1551549834961.866	178.97	-0.73	9.2	0.01	0.02	-1.02	68.38	12.12	-51.86	
1551549834973.914	178.97	-0.74	9.2	0.02	0.02	-1.02	68.38	12.26	-52.06	
1551549834985.962	178.97	-0.74	9.21	0.01	0.02	-1.03	68.67	12.22	-51.81	
1551549834998.01	178.97	-0.73	9.21	0.01	0.02	-1.03	68.9	12.19	-51.61	
1551549835010.058	178.97	-0.74	9.21	0.02	0.02	-1.03	68.94	12.17	-51.45	
1551549835022.106	178.97	-0.74	9.21	0.01	0.02	-1.03	68.98	12.15	-51.33	
1551549835034.154	178.97	-0.74	9.22	0.01	0.02	-1.03	68.86	12.27	-51.36	
1551549835046.202	178.97	-0.74	9.23	0.01	0.02	-1.03	68.77	12.38	-51.39	
1551549835058.25	178.97	-0.73	9.23	0.01	0.02	-1.03	68.98	12.32	-51.28	
1551549835070.298	178.97	-0.74	9.23	0.01	0.02	-1.03	69.15	12.27	-51.18	
1551549835082.346	178.97	-0.74	9.24	0.01	0.02	-1.03	69.14	12.51	-51.25	
1551549835094.394	178.97	-0.74	9.25	0.01	0.02	-1.03	69.14	12.71	-51.3	
1551549835106.442	178.97	-0.74	9.26	0.01	0.02	-1.03	68.99	12.44	-51.48	
1551549835118.49	178.97	-0.74	9.26	0.01	0.02	-1.03	68.87	12.22	-51.62	
1551549835130.538	178.98	-0.73	9.27	0.01	0.01	-1.03	68.78	12.05	-51.6	
1551549835142.586	178.98	-0.74	9.27	0.01	0.02	-1.03	68.7	11.91	-51.58	
1551549835154.634	178.98	-0.74	9.27	0.01	0.02	-1.03	68.64	11.95	-51.7	
1551549835166.682	178.97	-0.73	9.26	0.01	0.02	-1.03	68.59	11.97	-51.8	
1551549835178.73	178.97	-0.74	9.26	0.02	0.02	-1.03	68.7	11.85	-51.6	
1551549835190.778	178.97	-0.74	9.26	0.01	0.02	-1.03	68.78	11.75	-51.45	
1551549835202.826	178.97	-0.74	9.26	0.01	0.02	-1.03	68.85	11.96	-51.59	
1551549835214.874	178.97	-0.74	9.26	0.01	0.02	-1.02	68.9	12.12	-51.71	
1551549835226.922	178.98	-0.74	9.26	0.01	0.02	-1.03	68.94	12.11	-51.81	
1551549835238.97	178.98	-0.74	9.26	0.01	0.02	-1.03	68.98	12.1	-51.89	
1551549835251.018	178.98	-0.74	9.27	0.01	0.02	-1.03	69.0	12.24	-51.95	
1551549835263.066	178.98	-0.74	9.27	0.01	0.02	-1.03	69.03	12.35	-52.0	
1551549835275.114	178.98	-0.74	9.28	0.01	0.02	-1.03	69.19	12.44	-51.9	
1551549835287.162	178.99	-0.74	9.28	0.01	0.02	-1.03	69.31	12.51	-51.82	
1551549835299.21	178.98	-0.74	9.28	0.02	0.02	-1.02	69.42	12.28	-51.62	
1551549835311.258	178.98	-0.73	9.28	0.0	0.02	-1.04	69.5	12.09	-51.46	
1551549835323.306	178.98	-0.73	9.28	0.01	0.02	-1.03	69.28	12.23	-51.88	
1551549835335.354	178.98	-0.74	9.28	0.02	0.02	-1.02	69.1	12.34	-52.22	
1551549835347.402	178.98	-0.74	9.29	0.02	0.02	-1.03	68.82	12.43	-51.8	
1551549835359.45	178.98	-0.74	9.3	0.01	0.02	-1.03	68.88	12.5	-51.74	
1551549835371.498	178.99	-0.74	9.31	0.01	0.02	-1.03	68.92	12.56	-51.69	
1551549835383.546	178.99	-0.74	9.32	0.01	0.02	-1.03	68.96	12.6	-51.66	
1551549835395.594	178.99	-0.74	9.32	0.01	0.02	-1.03	68.85	12.21	-51.76	
1551549835407.642	178.99	-0.74	9.32	0.01	0.02	-1.02	68.76	11.9	-51.85	
1551549835419.69	178.99	-0.74	9.31	0.01	0.02	-1.03	68.69	11.93	-51.5	
1551549835431.738	178.99	-0.74	9.31	0.01	0.02	-1.03	68.63	11.96	-51.23	
1551549835443.786	178.99	-0.74	9.31	0.01	0.02	-1.03	68.44	11.84	-51.01	
1551549835455.834	178.99	-0.73	9.31	0.01	0.02	-1.04	68.29	11.75	-50.83	
1551549835467.882	178.99	-0.73	9.31	0.01	0.02	-1.03	68.17	11.81	-51.11	
1551549835479.93	178.99	-0.74	9.3	0.02	0.02	-1.02	68.07	11.86	-51.32	
1551549835491.978	178.99	-0.74	9.3	0.01	0.02	-1.03	68.14	12.05	-51.36	
1551549835504.026	178.99	-0.74	9.31	0.01	0.02	-1.03	68.19	12.19	-51.39	
1551549835516.074	178.98	-0.74	9.31	0.01	0.02	-1.03	68.09	12.17	-51.55	
1551549835528.122	178.98	-0.74	9.31	0.01	0.02	-1.02	68.01	12.15	-51.68	
1551549835540.17	178.99	-0.74	9.32	0.01	0.02	-1.02	68.37	12.14	-51.64	
1551549835552.218	178.99	-0.74	9.32	0.01	0.02	-1.03	68.66	12.12	-51.61	
1551549835564.266	178.99	-0.74	9.32	0.01	0.02	-1.03	68.75	12.11	-51.59	
1551549835576.314	178.99	-0.74	9.32	0.01	0.02	-1.03	68.83	12.1	-51.57	
1551549835588.362	178.99	-0.74	9.32	0.01	0.02	-1.03	68.74	11.96	-51.7	
1551549835600.41	178.99	-0.74	9.32	0.01	0.02	-1.03	68.67	11.84	-51.8	
1551549835612.458	178.99	-0.74	9.31	0.01	0.02	-1.03	68.48	11.74	-51.74	
1551549835624.506	178.99	-0.74	9.31	0.01	0.02	-1.03	68.32	11.67	-51.69	
1551549835636.554	178.99	-0.74	9.3	0.01	0.02	-1.03	68.33	11.61	-51.79	
1551549835648.602	178.99	-0.73	9.29	0.01	0.02	-1.03	68.35	11.56	-51.87	
1551549835660.65	178.99	-0.73	9.28	0.01	0.02	-1.03	68.07	11.66	-51.8	
1551549835672.698	178.99	-0.73	9.28	0.01	0.02	-1.03	67.85	11.74	-51.74	
1551549835684.746	178.99	-0.73	9.28	0.01	0.02	-1.03	67.82	11.67	-51.97	
1551549835696.794	178.99	-0.73	9.27	0.01	0.02	-1.03	67.79	11.61	-52.15	
1551549835708.842	178.99	-0.73	9.27	0.01	0.02	-1.03	68.06	11.56	-52.43	
1551549835720.89	178.99	-0.73	9.26	0.01	0.02	-1.02	68.27	11.52	-52.66	
1551549835732.938	178.99	-0.73	9.26	0.01	0.02	-1.03	68.29	11.77	-52.56	
1551549835744.986	178.99	-0.73	9.26	0.01	0.02	-1.03	68.32	11.97	-52.49	
1551549835757.034	178.99	-0.73	9.26	0.01	0.02	-1.03	68.19	11.85	-52.43	
1551549835769.082	178.99	-0.73	9.25	0.01	0.02	-1.03	68.09	11.75	-52.38	
1551549835781.13	178.98	-0.72	9.25	0.01	0.02	-1.03	68.15	11.82	-52.48	
1551549835793.178	178.98	-0.72	9.25	0.01	0.02	-1.03	68.2	11.87	-52.56	
1551549835805.226	178.98	-0.72	9.25	0.01	0.02	-1.03	68.53	12.05	-52.21	
1551549835817.274	178.98	-0.72	9.25	0.02	0.02	-1.02	68.79	12.2	-51.93	
1551549835829.322	178.98	-0.72	9.25	0.01	0.02	-1.03	68.71	12.17	-51.85	
1551549835841.37	178.98	-0.72	9.26	0.01	0.02	-1.03	68.65	12.15	-51.78	
1551549835853.418	178.98	-0.72	9.26	0.01	0.02	-1.03	68.74	12.28	-51.45	
1551549835865.466	178.98	-0.72	9.27	0.01	0.02	-1.03	68.81	12.38	-51.19	
1551549835877.514	178.98	-0.72	9.27	0.01	0.02	-1.03	68.87	12.32	-51.39	
1551549835889.562	178.98	-0.73	9.27	0.01	0.02	-1.03	68.92	12.27	-51.55	
1551549835901.61	178.98	-0.73	9.28	0.01	0.02	-1.03	69.1	12.09	-51.54	
1551549835913.658	178.98	-0.73	9.27	0.01	0.02	-1.03	69.25	11.94	-51.53	
1551549835925.706	178.98	-0.73	9.27	0.02	0.02	-1.03	69.08	12.25	-51.66	
1551549835937.754	178.98	-0.73	9.28	0.01	0.02	-1.03	68.94	12.5	-51.77	
1551549835949.802	178.98	-0.73	9.28	0.01	0.02	-1.03	68.98	12.27	-51.72	
1551549835961.85	178.98	-0.73	9.28	0.01	0.02	-1.03	69.0	12.09	-51.67	
1551549835973.898	178.98	-0.73	9.28	0.01	0.02	-1.03	68.88	12.23	-52.05	
1551549835985.946	178.98	-0.73	9.29	0.01	0.02	-1.03	68.79	12.34	-52.35	
1551549835997.994	178.98	-0.73	9.29	0.01	0.02	-1.03	68.42	12.29	-52.18	
1551549836010.042	178.98	-0.73	9.29	0.01	0.02	-1.02	68.13	12.24	-52.05	
1551549836022.09	178.98	-0.73	9.3	0.01	0.02	-1.03	68.47	12.21	-51.94	
1551549836034.138	178.98	-0.73	9.3	0.01	0.02	-1.02	68.74	12.18	-51.85	
1551549836046.186	178.98	-0.73	9.3	0.01	0.02	-1.03	68.39	12.16	-51.78	
1551549836058.234	178.98	-0.73	9.31	0.01	0.02	-1.02	68.11	12.14	-51.73	
1551549836070.282	178.97	-0.73	9.31	0.01	0.02	-1.03	68.17	12.27	-51.82	
1551549836082.33	178.97	-0.73	9.32	0.01	0.02	-1.03	68.21	12.37	-51.89	
1551549836094.378	178.97	-0.73	9.32	0.01	0.02	-1.03	68.39	12.31	-51.82	
1551549836106.426	178.97	-0.73	9.32	0.01	0.02	-1.03	68.54	12.26	-51.75	
1551549836118.474	178.97	-0.73	9.32	0.01	0.02	-1.03	68.37	12.08	-51.7	
1551549836130.522	178.97	-0.73	9.32	0.01	0.02	-1.03	68.23	11.94	-51.66	
1551549836142.57	178.97	-0.73	9.32	0.01	0.02	-1.03	68.12	12.11	-51.63	
1551549836154.618	178.97	-0.73	9.33	0.01	0.02	-1.03	68.04	12.24	-51.61	
1551549836166.666	178.97	-0.73	9.33	0.01	0.02	-1.03	67.82	12.07	-51.31	
1551549836178.714	178.97	-0.73	9.33	0.01	0.02	-1.02	67.65	11.93	-51.07	
1551549836190.762	178.97	-0.73	9.33	0.01	0.02	-1.03	67.66	12.24	-51.16	
1551549836202.81	178.97	-0.73	9.34	0.01	0.02	-1.03	67.67	12.49	-51.23	
1551549836214.858	178.97	-0.73	9.35	0.01	0.02	-1.03	68.1	12.55	-51.28	
1551549836226.906	178.97	-0.73	9.36	0.01	0.02	-1.03	68.44	12.6	-51.33	
1551549836238.954	178.97	-0.73	9.36	0.01	0.02	-1.03	68.72	12.49	-51.23	
1551549836251.002	178.97	-0.73	9.37	0.01	0.02	-1.03	68.94	12.41	-51.14	
1551549836263.05	178.97	-0.73	9.38	0.01	0.02	-1.03	68.83	12.48	-50.94	
1551549836275.098	178.97	-0.73	9.38	0.01	0.02	-1.03	68.75	12.54	-50.78	
1551549836287.146	178.97	-0.73	9.39	0.01	0.02	-1.03	68.82	12.59	-51.06	
1551549836299.194	178.97	-0.73	9.4	0.01	0.02	-1.03	68.88	12.63	-51.29	
1551549836311.242	178.97	-0.73	9.4	0.01	0.02	-1.03	68.92	12.52	-51.33	
1551549836323.29	178.97	-0.73	9.4	0.01	0.02	-1.03	68.96	12.43	-51.37	
1551549836335.338	178.98	-0.73	9.4	0.01	0.02	-1.03	68.85	12.07	-51.39	
1551549836347.386	178.98	-0.73	9.4	0.01	0.02	-1.03	68.76	11.79	-51.42	
1551549836359.434	178.98	-0.73	9.39	0.01	0.02	-1.03	68.97	11.99	-51.3	
1551549836371.482	178.98	-0.73	9.39	0.01	0.02	-1.03	68.86	11.72	-51.34	
1551549836383.53	178.98	-0.73	9.37	0.01	0.02	-1.03	68.77	11.51	-51.37	
1551549836395.578	178.98	-0.73	9.36	0.01	0.02	-1.03	68.69	11.34	-51.4	
1551549836407.626	178.98	-0.73	9.35	0.01	0.02	-1.03	68.78	11.2	-51.42	
1551549836419.674	178.98	-0.73	9.33	0.01	0.02	-1.03	68.84	11.09	-51.44	
1551549836431.722	178.98	-0.73	9.31	0.01	0.02	-1.03	68.61	11.14	-51.45	
1551549836443.77	178.98	-0.73	9.3	0.01	0.02	-1.03	68.43	11.19	-51.46	
1551549836455.818	178.98	-0.73	9.29	0.01	0.02	-1.03	68.42	11.37	-51.74	
1551549836467.866	178.97	-0.73	9.28	0.01	0.02	-1.03	68.42	11.51	-51.97	
1551549836479.914	178.98	-0.73	9.27	0.01	0.02	-1.03	68.41	11.34	-51.74	
1551549836491.962	178.98	-0.73	9.25	0.01	0.02	-1.03	68.41	11.2	-51.56	
1551549836504.01	178.98	-0.73	9.24	0.01	0.02	-1.03	68.27	11.09	-51.54	
1551549836516.058	178.98	-0.73	9.23	0.01	0.02	-1.03	68.15	11.0	-51.54	
1551549836528.106	178.97	-0.73	9.22	0.01	0.02	-1.03	68.2	11.36	-51.39	
1551549836540.154	178.97	-0.74	9.21	0.01	0.02	-1.03	68.24	11.64	-51.28	
1551549836552.202	178.97	-0.74	9.21	0.01	0.02	-1.03	68.41	12.01	-51.19	
1551549836564.25	178.97	-0.74	9.22	0.01	0.02	-1.03	68.55	12.31	-51.11	
1551549836576.298	178.97	-0.74	9.23	0.01	0.02	-1.03	68.52	12.26	-51.6	
1551549836588.346	178.97	-0.74	9.23	0.01	0.02	-1.03	68.5	12.22	-51.99	
1551549836600.394	178.97	-0.74	9.23	0.01	0.02	-1.03	68.48	11.91	-52.03	
1551549836612.442	178.97	-0.74	9.23	0.01	0.02	-1.02	68.46	11.66	-52.07	
1551549836624.49	178.97	-0.74	9.22	0.01	0.02	-1.03	68.45	11.88	-51.82	
1551549836636.538	178.97	-0.74	9.23	0.01	0.02	-1.03	68.44	12.06	-51.62	
1551549836648.586	178.97	-0.74	9.23	0.01	0.02	-1.03	68.57	11.92	-51.46	
1551549836660.634	178.97	-0.74	9.23	0.01	0.02	-1.03	68.68	11.81	-51.33	
1551549836672.682	178.98	-0.74	9.22	0.01	0.02	-1.03	68.63	11.72	-51.36	
1551549836684.73	178.98	-0.74	9.22	0.01	0.02	-1.03	68.58	11.65	-51.39	
1551549836696.778	178.98	-0.74	9.22	0.01	0.02	-1.03	68.69	11.88	-51.55	
1551549836708.826	178.98	-0.74	9.22	0.01	0.02	-1.03	68.77	12.06	-51.68	
1551549836720.874	178.98	-0.74	9.22	0.01	0.02	-1.03	68.98	12.06	-51.51	
1551549836732.922	178.98	-0.74	9.22	0.01	0.02	-1.03	69.15	12.06	-51.37	
1551549836744.97	178.98	-0.74	9.22	0.01	0.02	-1.03	69.14	12.06	-51.26	
1551549836757.018	178.98	-0.74	9.22	0.01	0.02	-1.02	69.14	12.07	-51.17	
1551549836769.066	178.98	-0.74	9.22	0.01	0.02	-1.03	68.99	11.93	-51.65	
1551549836781.114	178.98	-0.74	9.21	0.01	0.02	-1.03	68.87	11.81	-52.03	
1551549836793.162	178.98	-0.74	9.22	0.01	0.02	-1.03	69.2	12.15	-52.06	
1551549836805.21	178.98	-0.74	9.22	0.01	0.02	-1.02	69.47	12.42	-52.09	
1551549836817.258	178.98	-0.74	9.23	0.01	0.02	-1.03	69.26	12.35	-52.11	
1551549836829.306	178.98	-0.74	9.23	0.01	0.02	-1.03	69.09	12.29	-52.13	
1551549836841.354	178.98	-0.75	9.24	0.02	0.02	-1.02	68.95	12.25	-52.0	
1551549836853.402	178.98	-0.75	9.24	0.01	0.02	-1.03	68.84	12.21	-51.9	
1551549836865.45	178.98	-0.75	9.24	0.01	0.02	-1.03	68.75	12.04	-52.1	
1551549836877.498	178.98	-0.75	9.24	0.02	0.02	-1.03	68.68	11.91	-52.25	
1551549836889.546	178.98	-0.75	9.24	0.01	0.02	-1.03	68.77	12.08	-51.97	
1551549836901.594	178.98	-0.75	9.24	0.01	0.02	-1.03	68.84	12.22	-51.74	
1551549836913.642	178.98	-0.75	9.24	0.01	0.02	-1.03	68.89	12.05	-51.41	
1551549836925.69	178.98	-0.75	9.24	0.01	0.02	-1.02	68.94	11.91	-51.16	
1551549836937.738	178.98	-0.75	9.24	0.01	0.02	-1.03	68.69	11.8	-51.23	
1551549836949.786	178.98	-0.75	9.24	0.01	0.02	-1.03	68.49	11.71	-51.28	
1551549836961.834	178.98	-0.75	9.24	0.01	0.02	-1.03	68.75	11.93	-51.33	
1551549836973.882	178.99	-0.75	9.24	0.01	0.02	-1.02	68.97	12.1	-51.36	
1551549836985.93	178.99	-0.75	9.24	0.01	0.02	-1.03	68.85	11.95	-51.53	
1551549836997.978	178.99	-0.75	9.24	0.01	0.02	-1.03	68.76	11.83	-51.66	
1551549837010.026	178.99	-0.75	9.24	0.01	0.02	-1.03	68.98	12.02	-51.77	
1551549837022.074	178.99	-0.75	9.24	0.01	0.02	-1.03	69.15	12.18	-51.85	
1551549837034.122	178.98	-0.75	9.24	0.01	0.02	-1.03	68.85	12.01	-51.92	
1551549837046.17	178.98	-0.75	9.23	0.01	0.02	-1.03	68.62	11.88	-51.97	
1551549837058.218	178.98	-0.75	9.23	0.01	0.02	-1.03	68.58	11.64	-52.15	
1551549837070.266	178.98	-0.75	9.22	0.01	0.02	-1.03	68.54	11.44	-52.3	
1551549837082.314	178.98	-0.75	9.21	0.01	0.02	-1.03	68.37	11.42	-52.14	
1551549837094.362	178.98	-0.75	9.2	0.01	0.02	-1.03	68.23	11.41	-52.01	
1551549837106.41	178.98	-0.75	9.2	0.01	0.02	-1.03	68.27	11.54	-52.05	
1551549837118.458	178.98	-0.75	9.19	0.01	0.02	-1.03	68.29	11.65	-52.08	
1551549837130.506	178.97	-0.75	9.19	0.01	0.02	-1.03	68.46	11.73	-52.24	
1551549837142.554	178.98	-0.75	9.19	0.01	0.02	-1.03	68.59	11.8	-52.36	
1551549837154.602	178.98	-0.75	9.19	0.01	0.02	-1.03	68.27	11.86	-52.47	
1551549837166.65	178.98	-0.75	9.19	0.01	0.02	-1.03	68.01	11.9	-52.55	
1551549837178.698	178.98	-0.75	9.19	0.01	0.02	-1.03	68.23	11.79	-52.2	
1551549837190.746	178.98	-0.75	9.18	0.01	0.02	-1.03	68.41	11.71	-51.93	
1551549837202.794	178.98	-0.75	9.18	0.01	0.02	-1.03	68.4	11.64	-51.84	
1551549837214.842	178.98	-0.75	9.18	0.01	0.02	-1.03	68.4	11.58	-51.77	
1551549837226.89	178.98	-0.75	9.17	0.02	0.02	-1.03	68.55	11.54	-51.86	
1551549837238.938	178.98	-0.75	9.17	0.01	0.02	-1.03	68.66	11.5	-51.92	
1551549837250.986	178.98	-0.75	9.16	0.01	0.02	-1.03	69.03	11.76	-51.84	
1551549837263.034	178.98	-0.75	9.16	0.01	0.02	-1.03	69.34	11.96	-51.77	
1551549837275.082	178.98	-0.75	9.16	0.01	0.02	-1.03	69.01	11.99	-51.58	
1551549837287.13	178.98	-0.75	9.16	0.01	0.02	-1.03	68.74	12.0	-51.43	
1551549837299.178	178.98	-0.75	9.17	0.01	0.02	-1.03	68.96	12.02	-51.72	
1551549837311.226	178.98	-0.75	9.17	0.01	0.02	-1.02	69.13	12.03	-51.95	
1551549837323.274	178.98	-0.76	9.17	0.02	0.02	-1.0	69.13	12.04	-51.86	
1551549837335.322	178.97	-0.77	9.17	0.02	0.02	-1.02	69.12	12.04	-51.79	
1551549837347.37	178.97	-0.77	9.17	0.01	0.02	-1.03	68.84	11.91	-51.87	
1551549837359.418	178.97	-0.76	9.16	0.01	0.02	-1.03	68.61	11.8	-51.93	
1551549837371.466	178.97	-0.76	9.16	0.02	0.02	-1.03	68.57	11.71	-51.99	
1551549837383.514	178.97	-0.76	9.15	0.01	0.02	-1.02	68.53	11.64	-52.03	
1551549837395.562	178.97	-0.77	9.15	0.02	0.02	-1.02	68.65	11.87	-52.2	
1551549837407.61	178.97	-0.77	9.16	0.02	0.01	-1.03	68.74	12.05	-52.33	
1551549837419.658	178.98	-0.77	9.17	0.01	0.02	-1.03	68.53	12.06	-52.3	
1551549837431.706	178.98	-0.76	9.17	0.01	0.02	-1.03	68.36	12.06	-52.28	
1551549837443.754	178.98	-0.76	9.17	0.02	0.02	-1.03	68.23	12.06	-52.26	
1551549837455.802	178.98	-0.76	9.18	0.01	0.02	-1.02	68.12	12.06	-52.25	
1551549837467.85	178.98	-0.76	9.18	0.01	0.02	-1.03	68.46	12.07	-52.24	
1551549837479.898	178.98	-0.76	9.19	0.01	0.02	-1.03	68.73	12.07	-52.23	
1551549837491.946	178.98	-0.76	9.19	0.01	0.02	-1.03	68.95	12.07	-52.22	
1551549837503.994	178.98	-0.76	9.19	0.01	0.02	-1.04	69.13	12.07	-52.21	
1551549837516.042	178.97	-0.76	9.19	0.01	0.02	-1.03	68.84	12.35	-52.07	
1551549837528.09	178.97	-0.77	9.2	0.02	0.02	-1.03	68.61	12.58	-51.96	
1551549837540.138	178.97	-0.77	9.21	0.01	0.02	-1.03	68.71	12.48	-51.87	
1551549837552.186	178.97	-0.76	9.21	0.01	0.02	-1.03	68.79	12.4	-51.79	
1551549837564.234	178.97	-0.76	9.21	0.01	0.02	-1.03	69.0	12.19	-51.74	
1551549837576.282	178.97	-0.76	9.22	0.01	0.02	-1.03	69.16	12.03	-51.69	
1551549837588.33	178.97	-0.76	9.21	0.01	0.02	-1.03	69.29	12.03	-51.79	
1551549837600.378	178.97	-0.76	9.22	0.01	0.02	-1.03	69.4	12.04	-51.87	
1551549837612.426	178.97	-0.76	9.21	0.01	0.02	-1.03	69.34	12.05	-51.52	
1551549837624.474	178.97	-0.75	9.21	0.01	0.02	-1.03	69.3	12.05	-51.24	
1551549837636.522	178.97	-0.76	9.22	0.02	0.02	-1.02	69.12	12.2	-51.3	
1551549837648.57	178.97	-0.76	9.22	0.01	0.02	-1.02	68.97	12.32	-51.34	
1551549837660.618	178.97	-0.75	9.23	0.01	0.02	-1.03	68.86	12.41	-51.37	
1551549837672.666	178.97	-0.75	9.24	0.01	0.02	-1.03	68.77	12.48	-51.4	
1551549837684.714	178.97	-0.76	9.24	0.02	0.02	-1.02	68.69	12.4	-51.28	
1551549837696.762	178.97	-0.76	9.25	0.01	0.02	-1.03	68.64	12.34	-51.19	
1551549837708.81	178.97	-0.76	9.25	0.01	0.02	-1.03	68.87	12.0	-51.25	
1551549837720.858	178.97	-0.75	9.24	0.01	0.02	-1.03	69.06	11.73	-51.3	
1551549837732.906	178.97	-0.75	9.24	0.02	0.02	-1.03	68.5	11.8	-51.21	
1551549837744.954	178.97	-0.75	9.24	0.01	0.02	-1.03	68.06	11.85	-51.13	
1551549837757.002	178.98	-0.75	9.25	0.01	0.01	-1.03	67.98	12.04	-51.2	
1551549837769.05	178.98	-0.75	9.25	0.01	0.02	-1.03	67.92	12.19	-51.26	
1551549837781.098	178.98	-0.75	9.25	0.01	0.02	-1.03	67.88	12.02	-51.45	
1551549837793.146	178.98	-0.75	9.25	0.01	0.02	-1.03	67.84	11.89	-51.6	
1551549837805.194	178.98	-0.75	9.25	0.01	0.02	-1.03	68.09	11.93	-51.58	
1551549837817.242	178.98	-0.75	9.25	0.01	0.02	-1.03	68.3	11.96	-51.56	
1551549837829.29	178.98	-0.75	9.26	0.01	0.02	-1.02	68.46	12.12	-51.69	
1551549837841.338	178.98	-0.75	9.26	0.01	0.02	-1.03	68.59	12.25	-51.79	
1551549837853.386	178.98	-0.75	9.27	0.01	0.02	-1.03	68.69	12.36	-51.46	
1551549837865.434	178.97	-0.75	9.27	0.01	0.02	-1.04	68.78	12.44	-51.19	
1551549837877.482	178.97	-0.75	9.28	0.01	0.02	-1.02	68.42	12.51	-51.25	
1551549837889.53	178.97	-0.75	9.29	0.02	0.02	-1.02	68.13	12.57	-51.3	
1551549837901.578	178.97	-0.75	9.29	0.01	0.02	-1.03	68.33	12.33	-51.48	
1551549837913.626	178.97	-0.75	9.3	0.01	0.02	-1.03	68.48	12.13	-51.62	
1551549837925.674	178.97	-0.75	9.3	0.01	0.02	-1.03	68.32	12.12	-51.74	
1551549837937.722	178.97	-0.75	9.3	0.01	0.02	-1.03	68.2	12.11	-51.83	
1551549837949.77	178.97	-0.75	9.31	0.01	0.02	-1.03	68.24	12.25	-51.63	
1551549837961.818	178.98	-0.75	9.31	0.01	0.02	-1.03	68.27	12.35	-51.46	
1551549837973.866	178.98	-0.74	9.31	0.01	0.02	-1.03	68.58	12.15	-51.47	
1551549837985.914	178.97	-0.75	9.31	0.02	0.02	-1.02	68.83	12.0	-51.48	
1551549837997.962	178.97	-0.76	9.31	0.02	0.02	-1.02	69.03	12.01	-51.48	
1551549838010.01	178.98	-0.75	9.31	0.01	0.02	-1.03	69.19	12.02	-51.49	
1551549838022.058	178.97	-0.76	9.31	0.02	0.02	-1.03	69.03	12.18	-51.35	
1551549838034.106	178.97	-0.76	9.31	0.01	0.02	-1.03	68.9	12.3	-51.25	
1551549838046.154	178.98	-0.75	9.32	0.01	0.02	-1.03	68.66	12.39	-51.3	
1551549838058.202	178.98	-0.75	9.32	0.01	0.02	-1.01	68.47	12.47	-51.34	
1551549838070.25	178.98	-0.76	9.33	0.02	0.02	-1.01	68.6	12.53	-51.1	
1551549838082.298	178.97	-0.76	9.34	0.01	0.02	-1.03	68.7	12.58	-50.9	
1551549838094.346	178.98	-0.75	9.35	0.01	0.02	-1.04	68.64	12.77	-51.16	
1551549838106.394	178.98	-0.75	9.36	0.01	0.02	-1.03	68.59	12.91	-51.37	
1551549838118.442	178.98	-0.76	9.37	0.02	0.02	-1.02	68.7	12.46	-51.53	
1551549838130.49	178.97	-0.76	9.36	0.01	0.02	-1.03	68.78	12.1	-51.66	
1551549838142.538	178.98	-0.75	9.36	0.01	0.02	-1.03	68.85	12.09	-51.77	
1551549838154.586	178.98	-0.76	9.36	0.01	0.02	-1.03	68.9	12.09	-51.85	
1551549838166.634	178.98	-0.76	9.36	0.01	0.02	-1.03	68.94	12.23	-51.92	
1551549838178.682	178.97	-0.76	9.37	0.01	0.02	-1.03	68.98	12.34	-51.97	
1551549838190.73	178.97	-0.76	9.37	0.01	0.02	-1.03	69.0	12.43	-51.88	
1551549838202.778	178.97	-0.76	9.37	0.01	0.02	-1.03	69.03	12.5	-51.81	
1551549838214.826	178.97	-0.76	9.38	0.01	0.02	-1.03	68.9	12.56	-51.74	
1551549838226.874	178.97	-0.76	9.39	0.01	0.02	-1.02	68.8	12.6	-51.7	
1551549838238.922	178.97	-0.76	9.39	0.01	0.02	-1.03	68.44	12.21	-51.66	
1551549838250.97	178.98	-0.76	9.38	0.01	0.02	-1.03	68.14	11.9	-51.63	
1551549838263.018	178.97	-0.75	9.38	0.01	0.02	-1.03	68.05	11.93	-51.74	
1551549838275.066	178.97	-0.76	9.38	0.02	0.02	-1.03	67.98	11.96	-51.83	
1551549838287.114	178.97	-0.76	9.38	0.01	0.02	-1.03	68.21	11.84	-51.76	
1551549838299.162	178.97	-0.75	9.37	0.01	0.02	-1.03	68.39	11.75	-51.71	
1551549838311.21	178.97	-0.75	9.36	0.01	0.02	-1.02	68.39	11.81	-51.4	
1551549838323.258	178.97	-0.76	9.36	0.01	0.02	-1.03	68.39	11.86	-51.14	
1551549838335.306	178.97	-0.76	9.35	0.01	0.02	-1.03	68.54	11.91	-51.63	
1551549838347.354	178.97	-0.76	9.35	0.01	0.02	-1.03	68.65	11.94	-52.01	
1551549838359.402	178.97	-0.76	9.35	0.01	0.02	-1.03	68.6	11.97	-52.19	
1551549838371.45	178.97	-0.75	9.35	0.01	0.02	-1.03	68.56	11.99	-52.33	
1551549838383.498	178.97	-0.75	9.34	0.01	0.02	-1.03	68.67	12.0	-52.3	
1551549838395.546	178.97	-0.75	9.34	0.01	0.02	-1.03	68.76	12.02	-52.28	
1551549838407.594	178.97	-0.75	9.34	0.01	0.02	-1.03	68.69	12.03	-52.12	
1551549838419.642	178.97	-0.75	9.34	0.01	0.02	-1.03	68.63	12.04	-52.0	
1551549838431.69	178.97	-0.75	9.33	0.01	0.02	-1.03	68.44	11.9	-51.9	
1551549838443.738	178.97	-0.75	9.33	0.01	0.02	-1.03	68.29	11.79	-51.82	
1551549838455.786	178.97	-0.75	9.32	0.01	0.02	-1.03	68.31	11.99	-51.89	
1551549838467.834	178.97	-0.75	9.33	0.01	0.02	-1.03	68.33	12.15	-51.95	
1551549838479.882	178.97	-0.75	9.33	0.01	0.02	-1.03	68.34	11.99	-51.73	
1551549838491.93	178.97	-0.75	9.32	0.01	0.02	-1.03	68.36	11.87	-51.54	
1551549838503.978	178.97	-0.74	9.32	0.01	0.02	-1.03	68.65	11.77	-51.81	
1551549838516.026	178.97	-0.74	9.31	0.01	0.02	-1.03	68.88	11.69	-52.02	
1551549838528.074	178.97	-0.74	9.3	0.01	0.02	-1.03	69.07	11.62	-51.78	
1551549838540.122	178.98	-0.74	9.29	0.01	0.02	-1.03	69.22	11.57	-51.59	
1551549838552.17	178.97	-0.74	9.29	0.01	0.02	-1.03	69.2	11.67	-51.44	
1551549838564.218	178.98	-0.74	9.28	0.01	0.02	-1.03	69.18	11.75	-51.31	
1551549838576.266	178.98	-0.74	9.27	0.01	0.02	-1.03	69.03	11.53	-51.35	
1551549838588.314	178.97	-0.74	9.26	0.01	0.02	-1.03	68.9	11.36	-51.38	
1551549838600.362	178.98	-0.74	9.25	0.01	0.02	-1.03	68.94	11.5	-51.54	
1551549838612.41	178.98	-0.74	9.24	0.01	0.02	-1.03	68.98	11.61	-51.67	
1551549838624.458	178.98	-0.74	9.24	0.01	0.02	-1.03	69.0	11.42	-51.78	
1551549838636.506	178.98	-0.74	9.22	0.01	0.02	-1.03	69.03	11.27	-51.86	
1551549838648.554	178.97	-0.74	9.22	0.01	0.02	-1.03	68.76	11.71	-52.06	
1551549838660.602	178.97	-0.74	9.22	0.02	0.02	-1.03	68.54	12.07	-52.23	
1551549838672.65	178.97	-0.74	9.22	0.01	0.02	-1.03	68.52	12.07	-52.22	
1551549838684.698	178.97	-0.75	9.22	0.01	0.02	-1.03	68.49	12.07	-52.21	
1551549838696.746	178.97	-0.75	9.22	0.01	0.02	-1.02	68.62	12.07	-51.93	
1551549838708.794	178.97	-0.75	9.23	0.02	0.02	-1.02	68.72	12.07	-51.71	
1551549838720.842	178.97	-0.75	9.22	0.01	0.02	-1.03	68.79	11.93	-51.81	
1551549838732.89	178.97	-0.75	9.22	0.01	0.02	-1.03	68.86	11.82	-51.88	
1551549838744.938	178.97	-0.75	9.22	0.01	0.02	-1.03	68.62	12.15	-51.53	
1551549838756.986	178.97	-0.75	9.23	0.01	0.02	-1.03	68.44	12.42	-51.25	
1551549838769.034	178.97	-0.75	9.24	0.01	0.02	-1.03	68.43	12.49	-51.3	
1551549838781.082	178.97	-0.75	9.25	0.02	0.02	-1.03	68.42	12.55	-51.34	
1551549838793.13	178.97	-0.75	9.26	0.01	0.02	-1.03	68.28	12.74	-51.38	
1551549838805.178	178.97	-0.75	9.28	0.01	0.02	-1.03	68.16	12.89	-51.4	
1551549838817.226	178.97	-0.75	9.3	0.01	0.02	-1.03	68.21	13.01	-51.42	
1551549838829.274	178.97	-0.75	9.32	0.01	0.02	-1.03	68.25	13.11	-51.44	
1551549838841.322	178.97	-0.75	9.33	0.01	0.02	-1.03	68.42	13.04	-51.31	
1551549838853.37	178.97	-0.75	9.35	0.01	0.02	-1.03	68.56	12.99	-51.21	
1551549838865.418	178.98	-0.75	9.36	0.02	0.02	-1.03	68.53	12.81	-51.14	
1551549838877.466	178.97	-0.76	9.37	0.02	0.02	-1.03	68.5	12.66	-51.07	
1551549838889.514	178.98	-0.75	9.38	0.01	0.02	-1.03	68.48	12.68	-51.43	
1551549838901.562	178.98	-0.75	9.39	0.01	0.02	-1.03	68.46	12.7	-51.72	
1551549838913.61	178.98	-0.75	9.4	0.02	0.02	-1.02	68.59	12.44	-51.68	
1551549838925.658	178.98	-0.75	9.4	0.01	0.02	-1.03	68.7	12.22	-51.64	
1551549838937.706	178.98	-0.75	9.4	0.01	0.02	-1.03	68.64	12.48	-51.62	
1551549838949.754	178.98	-0.75	9.41	0.01	0.02	-1.03	68.59	12.68	-51.59	
1551549838961.802	178.98	-0.75	9.42	0.01	0.02	-1.03	68.84	12.7	-51.71	
1551549838973.85	178.98	-0.75	9.43	0.01	0.02	-1.03	69.03	12.72	-51.81	
1551549838985.898	178.98	-0.75	9.43	0.01	0.02	-1.03	68.77	12.73	-52.02	
1551549838997.946	178.98	-0.75	9.44	0.01	0.02	-1.03	68.55	12.74	-52.19	
1551549839009.994	178.98	-0.75	9.45	0.01	0.02	-1.02	68.52	12.75	-51.78	
1551549839022.042	178.98	-0.75	9.46	0.01	0.02	-1.03	68.5	12.76	-51.45	
1551549839034.09	178.97	-0.75	9.47	0.01	0.02	-1.03	68.76	12.9	-51.46	
1551549839046.138	178.97	-0.75	9.48	0.01	0.02	-1.03	68.97	13.02	-51.47	
1551549839058.186	178.97	-0.75	9.49	0.01	0.02	-1.03	68.86	12.97	-51.61	
1551549839070.234	178.97	-0.75	9.5	0.01	0.02	-1.02	68.77	12.94	-51.73	
1551549839082.282	178.97	-0.75	9.5	0.02	0.02	-1.03	68.84	12.62	-51.41	
1551549839094.33	178.98	-0.75	9.51	0.01	0.02	-1.03	68.89	12.37	-51.15	
1551549839106.378	178.98	-0.75	9.5	0.01	0.02	-1.03	68.79	12.17	-51.36	
1551549839118.426	178.98	-0.75	9.5	0.01	0.02	-1.03	68.71	12.01	-51.53	
1551549839130.474	178.98	-0.75	9.49	0.01	0.02	-1.03	68.51	11.88	-51.39	
1551549839142.522	178.98	-0.75	9.48	0.01	0.02	-1.03	68.34	11.77	-51.27	
1551549839154.57	178.98	-0.75	9.47	0.01	0.02	-1.03	68.21	11.55	-51.73	
1551549839166.618	178.98	-0.75	9.46	0.01	0.02	-1.03	68.11	11.37	-52.1	
1551549839178.666	178.99	-0.75	9.45	0.01	0.02	-1.03	68.17	11.51	-51.98	
1551549839190.714	178.99	-0.75	9.45	0.01	0.02	-1.03	68.21	11.62	-51.88	
1551549839202.762	178.99	-0.75	9.44	0.01	0.02	-1.03	68.11	11.71	-51.94	
1551549839214.81	178.98	-0.75	9.43	0.01	0.02	-1.03	68.02	11.79	-51.99	
1551549839226.858	178.98	-0.75	9.43	0.01	0.02	-1.03	67.96	12.13	-51.9	
1551549839238.906	178.99	-0.75	9.44	0.01	0.02	-1.03	67.9	12.4	-51.82	
1551549839250.954	178.98	-0.75	9.44	0.01	0.02	-1.03	68.29	12.62	-51.75	
1551549839263.002	178.98	-0.75	9.45	0.01	0.02	-1.03	68.59	12.79	-51.7	
1551549839275.05	178.99	-0.75	9.46	0.01	0.02	-1.03	68.56	12.65	-51.66	
1551549839287.098	178.99	-0.75	9.47	0.01	0.02	-1.03	68.52	12.53	-51.63	
1551549839299.146	178.99	-0.75	9.47	0.01	0.02	-1.02	68.78	12.44	-51.61	
1551549839311.194	178.99	-0.75	9.47	0.01	0.02	-1.03	68.99	12.37	-51.59	
1551549839323.242	178.99	-0.75	9.48	0.01	0.02	-1.03	69.16	12.59	-51.29	
1551549839335.29	178.99	-0.75	9.48	0.01	0.02	-1.03	69.29	12.77	-51.06	
1551549839347.338	178.99	-0.75	9.48	0.01	0.02	-1.02	69.26	12.35	-51.29	
1551549839359.386	178.99	-0.75	9.48	0.01	0.02	-1.03	69.23	12.01	-51.47	
1551549839371.434	178.99	-0.75	9.47	0.01	0.02	-1.03	69.2	12.16	-51.75	
1551549839383.482	178.98	-0.75	9.47	0.02	0.02	-1.03	69.19	12.29	-51.98	
1551549839395.53	178.98	-0.75	9.47	0.01	0.02	-1.03	69.03	12.24	-51.74	
1551549839407.578	178.98	-0.75	9.46	0.01	0.02	-1.03	68.9	12.21	-51.56	
1551549839419.626	178.98	-0.75	9.46	0.01	0.02	-1.03	68.66	12.32	-51.14	
1551549839431.674	178.98	-0.75	9.47	0.01	0.02	-1.02	68.47	12.42	-50.8	
1551549839443.722	178.98	-0.75	9.47	0.01	0.02	-1.03	68.59	12.21	-50.8	
1551549839455.77	178.98	-0.75	9.47	0.01	0.02	-1.03	68.7	12.04	-50.8	
1551549839467.818	178.98	-0.75	9.46	0.01	0.02	-1.03	68.64	11.76	-51.08	
1551549839479.866	178.99	-0.75	9.45	0.02	0.02	-1.03	68.59	11.54	-51.3	
1551549839491.914	178.99	-0.75	9.44	0.01	0.02	-1.03	68.41	11.65	-51.07	
1551549839503.962	178.99	-0.76	9.43	0.01	0.02	-1.03	68.27	11.73	-50.88	
1551549839516.01	178.99	-0.75	9.43	0.01	0.02	-1.04	67.87	11.66	-51.28	
1551549839528.058	178.99	-0.75	9.42	0.01	0.02	-1.03	67.54	11.6	-51.6	
1551549839540.106	178.98	-0.75	9.41	0.02	0.02	-1.02	67.72	11.55	-51.72	
1551549839552.154	178.99	-0.75	9.4	0.01	0.02	-1.02	67.85	11.51	-51.81	
1551549839564.202	178.99	-0.75	9.39	0.01	0.02	-1.03	67.96	11.63	-51.75	
1551549839576.25	178.99	-0.75	9.39	0.01	0.02	-1.02	68.05	11.71	-51.7	
1551549839588.298	178.99	-0.75	9.39	0.01	0.02	-1.03	68.12	12.07	-51.66	
1551549839600.346	178.99	-0.76	9.39	0.01	0.02	-1.03	68.18	12.35	-51.63	
1551549839612.394	178.99	-0.76	9.4	0.01	0.02	-1.03	68.22	12.44	-51.47	
1551549839624.442	178.99	-0.76	9.41	0.01	0.02	-1.03	68.26	12.51	-51.34	
1551549839636.49	178.99	-0.76	9.41	0.01	0.02	-1.03	68.29	12.28	-51.37	
1551549839648.538	178.99	-0.76	9.41	0.01	0.02	-1.03	68.31	12.1	-51.4	
1551549839660.586	178.99	-0.76	9.41	0.01	0.02	-1.03	68.33	11.95	-51.14	
1551549839672.634	178.99	-0.76	9.41	0.01	0.02	-1.03	68.34	11.83	-50.94	
1551549839684.682	178.99	-0.76	9.4	0.01	0.02	-1.03	68.35	12.02	-51.05	
1551549839696.73	178.99	-0.76	9.4	0.01	0.02	-1.03	68.36	12.17	-51.14	
1551549839708.778	178.99	-0.75	9.4	0.01	0.02	-1.03	68.37	12.15	-50.94	
1551549839720.826	178.99	-0.75	9.41	0.01	0.02	-1.03	68.38	12.14	-50.78	
1551549839732.874	178.99	-0.75	9.41	0.01	0.02	-1.03	68.67	12.12	-50.92	
1551549839744.922	178.99	-0.75	9.41	0.01	0.02	-1.03	68.9	12.11	-51.04	
1551549839756.97	178.99	-0.75	9.4	0.01	0.02	-1.03	68.8	11.96	-51.27	
1551549839769.018	178.99	-0.75	9.4	0.01	0.02	-1.03	68.72	11.84	-51.45	
1551549839781.066	178.99	-0.75	9.39	0.01	0.02	-1.03	68.65	12.03	-51.46	
1551549839793.114	178.99	-0.75	9.39	0.01	0.02	-1.02	68.6	12.18	-51.47	
1551549839805.162	178.99	-0.75	9.39	0.01	0.02	-1.03	68.71	12.02	-51.75	
1551549839817.21	178.99	-0.75	9.39	0.01	0.02	-1.03	68.79	11.89	-51.98	
1551549839829.258	178.99	-0.75	9.39	0.01	0.02	-1.03	68.85	12.35	-52.16	
1551549839841.306	178.99	-0.75	9.4	0.01	0.02	-1.03	68.9	12.72	-52.3	
1551549839853.354	178.99	-0.75	9.4	0.01	0.02	-1.03	68.95	12.59	-52.14	
1551549839865.402	178.99	-0.75	9.41	0.01	0.02	-1.03	68.98	12.49	-52.01	
1551549839877.45	178.98	-0.75	9.41	0.01	0.02	-1.03	68.72	12.26	-52.05	
1551549839889.498	178.99	-0.75	9.41	0.01	0.02	-1.03	68.51	12.08	-52.08	
1551549839901.546	178.98	-0.75	9.4	0.01	0.02	-1.03	68.63	12.08	-51.96	
1551549839913.594	178.98	-0.75	9.4	0.01	0.02	-1.03	68.73	12.08	-51.87	
1551549839925.642	178.98	-0.75	9.4	0.01	0.02	-1.03	68.52	12.22	-51.52	
1551549839937.69	178.98	-0.75	9.41	0.01	0.02	-1.03	68.35	12.33	-51.24	
1551549839949.738	178.99	-0.75	9.41	0.01	0.02	-1.03	68.65	12.14	-51.43	
1551549839961.786	178.98	-0.74	9.4	0.01	0.02	-1.03	68.88	11.98	-51.59	
1551549839973.834	178.99	-0.75	9.4	0.01	0.02	-1.03	68.64	12.14	-51.71	
1551549839985.882	178.99	-0.75	9.4	0.02	0.02	-1.03	68.45	12.27	-51.8	
1551549839997.93	178.98	-0.74	9.4	0.01	0.02	-1.03	68.87	11.95	-51.74	
1551549840009.978	178.98	-0.74	9.39	0.01	0.02	-1.03	69.2	11.69	-51.7	
1551549840022.026	178.99	-0.75	9.38	0.02	0.02	-1.03	69.19	11.77	-51.38	
1551549840034.074	178.98	-0.75	9.37	0.01	0.02	-1.03	69.17	11.83	-51.13	
1551549840046.122	178.98	-0.75	9.37	0.01	0.02	-1.03	69.16	11.88	-51.21	
1551549840058.17	178.98	-0.75	9.36	0.01	0.02	-1.02	69.15	11.92	-51.27	
1551549840070.218	178.98	-0.75	9.36	0.01	0.02	-1.03	69.28	12.09	-51.45	
1551549840082.266	178.98	-0.75	9.36	0.01	0.02	-1.03	69.39	12.23	-51.6	
1551549840094.314	178.98	-0.75	9.36	0.01	0.02	-1.03	69.34	12.2	-51.72	
1551549840106.362	178.98	-0.75	9.36	0.01	0.02	-1.02	69.29	12.17	-51.81	
1551549840118.41	178.99	-0.75	9.36	0.01	0.02	-1.03	69.26	12.29	-51.89	
1551549840130.458	178.98	-0.75	9.37	0.01	0.02	-1.03	69.23	12.39	-51.95	
1551549840142.506	178.98	-0.75	9.36	0.01	0.02	-1.03	69.35	12.19	-52.13	
1551549840154.554	178.98	-0.75	9.36	0.01	0.02	-1.03	69.44	12.02	-52.28	
1551549840166.602	178.98	-0.75	9.35	0.01	0.02	-1.03	69.38	12.03	-52.26	
1551549840178.65	178.98	-0.75	9.35	0.02	0.02	-1.03	69.32	12.04	-52.25	
1551549840190.698	178.98	-0.75	9.35	0.01	0.02	-1.03	69.28	12.05	-52.24	
1551549840202.746	178.98	-0.75	9.35	0.01	0.02	-1.03	69.25	12.05	-52.23	
1551549840214.794	178.98	-0.75	9.35	0.02	0.02	-1.03	69.08	12.2	-52.08	
1551549840226.842	178.98	-0.75	9.35	0.01	0.02	-1.03	68.94	12.31	-51.97	
1551549840238.89	178.98	-0.75	9.35	0.01	0.02	-1.03	68.69	12.27	-52.01	
1551549840250.938	178.98	-0.75	9.36	0.01	0.02	-1.03	68.49	12.23	-52.05	
1551549840262.986	178.98	-0.75	9.35	0.01	0.02	-1.03	68.62	12.05	-51.94	
1551549840275.034	178.98	-0.75	9.35	0.01	0.02	-1.03	68.71	11.92	-51.85	
1551549840287.082	178.98	-0.75	9.35	0.01	0.02	-1.03	68.79	12.09	-51.78	
1551549840299.13	178.98	-0.75	9.35	0.01	0.02	-1.02	68.86	12.23	-51.73	
1551549840311.178	178.98	-0.75	9.35	0.01	0.02	-1.03	69.05	12.06	-51.54	
1551549840323.226	178.98	-0.75	9.34	0.01	0.02	-1.03	69.21	11.92	-51.4	
1551549840335.274	178.98	-0.75	9.34	0.01	0.02	-1.03	69.04	11.95	-51.28	
1551549840347.322	178.98	-0.75	9.34	0.02	0.02	-1.03	68.92	11.97	-51.19	
1551549840359.37	178.98	-0.75	9.34	0.01	0.02	-1.03	68.81	11.99	-51.53	
1551549840371.418	178.98	-0.75	9.33	0.01	0.02	-1.03	68.73	12.01	-51.8	
1551549840383.466	178.98	-0.75	9.33	0.01	0.02	-1.03	68.52	11.88	-51.74	
1551549840395.514	178.98	-0.75	9.33	0.01	0.02	-1.03	68.35	11.78	-51.69	
1551549840407.562	178.98	-0.75	9.33	0.01	0.02	-1.03	68.51	11.98	-51.79	
1551549840419.61	178.98	-0.75	9.33	0.02	0.02	-1.03	68.63	12.14	-51.87	
1551549840431.658	178.98	-0.75	9.33	0.01	0.02	-1.03	68.87	12.13	-51.8	
1551549840443.706	178.98	-0.75	9.33	0.01	0.02	-1.03	69.06	12.11	-51.74	
1551549840455.754	178.98	-0.75	9.33	0.02	0.02	-1.03	68.93	12.11	-51.55	
1551549840467.802	178.98	-0.75	9.33	0.01	0.02	-1.03	68.82	12.1	-51.41	
1551549840479.85	178.99	-0.75	9.33	0.01	0.02	-1.03	68.74	12.09	-51.29	
1551549840491.898	178.99	-0.76	9.33	0.01	0.02	-1.03	68.67	12.09	-51.19	
1551549840503.946	178.99	-0.75	9.34	0.01	0.02	-1.02	68.62	12.37	-51.26	
1551549840515.994	178.98	-0.75	9.35	0.01	0.02	-1.03	68.57	12.6	-51.31	
1551549840528.042	178.98	-0.75	9.36	0.01	0.02	-1.03	68.82	12.77	-51.35	
1551549840540.09	178.98	-0.75	9.37	0.01	0.02	-1.03	69.02	12.92	-51.38	
1551549840552.138	178.98	-0.76	9.39	0.01	0.02	-1.03	68.9	13.03	-51.68	
1551549840564.186	178.99	-0.76	9.4	0.01	0.02	-1.02	68.8	13.13	-51.92	
1551549840576.234	178.99	-0.76	9.42	0.01	0.02	-1.03	68.58	12.77	-51.83	
1551549840588.282	178.99	-0.75	9.42	0.01	0.02	-1.02	68.4	12.49	-51.77	
1551549840600.33	178.99	-0.75	9.42	0.01	0.02	-1.02	68.54	12.12	-51.85	
1551549840612.378	178.99	-0.75	9.41	0.01	0.02	-1.03	68.66	11.83	-51.92	
1551549840624.426	178.98	-0.75	9.41	0.01	0.02	-1.03	68.6	11.88	-51.84	
1551549840636.474	178.98	-0.75	9.4	0.01	0.02	-1.02	68.56	11.92	-51.77	
1551549840648.522	178.98	-0.75	9.4	0.01	0.02	-1.03	68.67	11.95	-51.58	
1551549840660.57	178.99	-0.75	9.39	0.01	0.02	-1.03	68.76	11.97	-51.43	
timestamp	roll	pitch	yaw	acceleration x	acceleration y	acceleration z	compass x	compass y	compass z	temperature	humidity	altitude
timestamp	roll	pitch	yaw	acceleration x	acceleration y	acceleration z	compass x	compass y	compass z	temperature	humidity	altitude
1551801602887.339	179.55	0.99	9.79	-0.02	0.01	-1.03	12.54	2.27	-10.16	
1551801602899.387	179.55	0.99	9.77	-0.02	0.01	-1.03	22.86	3.81	-18.43	
1551801602911.435	179.55	0.99	9.75	-0.02	0.01	-1.03	31.11	5.03	-25.05	
1551801602923.483	179.55	0.99	9.73	-0.02	0.01	-1.04	37.71	6.02	-30.34	
1551801602935.531	179.55	0.98	9.71	-0.01	0.01	-1.03	42.57	6.94	-34.43	
1551801602947.579	179.55	0.98	9.69	-0.02	0.01	-1.03	46.45	7.68	-37.71	
1551801602959.627	179.55	0.98	9.67	-0.02	0.01	-1.04	49.84	8.14	-40.47	
1551801602971.675	179.55	0.99	9.65	-0.02	0.01	-1.03	52.56	8.5	-42.68	
1551801602983.723	179.55	0.99	9.63	-0.02	0.01	-1.03	54.44	8.79	-44.44	
1551801602995.771	179.55	0.99	9.61	-0.02	0.01	-1.03	55.95	9.02	-45.85	
1551801603007.819	179.55	0.99	9.6	-0.02	0.01	-1.03	57.73	9.63	-46.71	
1551801603019.867	179.55	0.99	9.59	-0.02	0.01	-1.04	59.15	10.12	-47.39	
1551801603031.915	179.55	0.99	9.58	-0.02	0.01	-1.03	60.0	9.94	-47.8	
1551801603043.963	179.54	0.99	9.56	-0.02	0.01	-1.03	60.69	9.8	-48.13	
1551801603056.011	179.54	0.99	9.54	-0.02	0.01	-1.03	61.23	9.97	-48.53	
1551801603068.059	179.54	0.99	9.53	-0.02	0.01	-1.03	61.67	10.11	-48.85	
1551801603080.107	179.54	0.99	9.52	-0.02	0.01	-1.03	62.02	10.22	-49.38	
1551801603092.155	179.54	0.98	9.51	-0.02	0.01	-1.03	62.3	10.3	-49.81	
1551801603104.203	179.54	0.98	9.49	-0.02	0.01	-1.03	62.23	10.37	-50.15	
1551801603116.251	179.54	0.98	9.48	-0.02	0.01	-1.03	62.18	10.43	-50.42	
1551801603128.299	179.54	0.98	9.47	-0.02	0.01	-1.03	62.43	10.33	-50.36	
1551801603140.347	179.54	0.98	9.45	-0.02	0.01	-1.03	62.63	10.25	-50.31	
1551801603152.395	179.53	0.98	9.44	-0.02	0.01	-1.03	62.78	10.33	-50.28	
1551801603164.443	179.53	0.98	9.43	-0.02	0.01	-1.03	62.91	10.4	-50.25	
1551801603176.491	179.53	0.97	9.41	-0.01	0.01	-1.03	63.15	10.16	-50.22	
1551801603188.539	179.53	0.97	9.39	-0.02	0.01	-1.03	63.35	9.98	-50.21	
1551801603200.587	179.53	0.98	9.38	-0.02	0.01	-1.03	63.22	10.11	-50.6	
1551801603212.635	179.53	0.97	9.37	-0.02	0.01	-1.03	63.11	10.22	-50.92	
1551801603224.683	179.53	0.97	9.35	-0.02	0.01	-1.03	63.17	10.31	-50.76	
1551801603236.731	179.53	0.97	9.34	-0.02	0.01	-1.03	63.22	10.38	-50.64	
1551801603248.779	179.53	0.97	9.33	-0.02	0.01	-1.03	63.12	10.43	-50.67	
1551801603260.827	179.53	0.97	9.33	-0.02	0.01	-1.03	63.03	10.48	-50.7	
1551801603272.875	179.53	0.97	9.31	-0.02	0.01	-1.04	63.25	10.08	-50.59	
1551801603284.923	179.53	0.97	9.29	-0.01	0.01	-1.03	63.43	9.77	-50.5	
1551801603296.971	179.53	0.97	9.28	-0.02	0.01	-1.03	63.57	10.09	-50.56	
1551801603309.019	179.53	0.97	9.26	-0.02	0.01	-1.03	63.68	10.34	-50.61	
1551801603321.067	179.53	0.97	9.25	-0.02	0.01	-1.03	63.62	9.98	-50.93	
1551801603333.115	179.53	0.97	9.22	-0.02	0.01	-1.03	63.58	9.69	-51.18	
1551801603345.163	179.53	0.97	9.2	-0.02	0.01	-1.03	63.69	9.46	-50.83	
1551801603357.211	179.53	0.96	9.17	-0.02	0.01	-1.03	63.78	9.27	-50.55	
1551801603369.259	179.53	0.96	9.15	-0.02	0.01	-1.03	63.7	9.55	-50.61	
1551801603381.307	179.53	0.96	9.13	-0.02	0.01	-1.03	63.65	9.77	-50.65	
1551801603393.355	179.53	0.96	9.12	-0.02	0.01	-1.04	63.31	9.66	-50.82	
1551801603405.403	179.53	0.96	9.1	-0.02	0.01	-1.03	63.05	9.57	-50.96	
1551801603417.451	179.53	0.96	9.08	-0.02	0.01	-1.03	63.12	9.65	-50.79	
1551801603429.499	179.53	0.96	9.06	-0.02	0.01	-1.03	63.18	9.71	-50.66	
1551801603441.547	179.53	0.96	9.04	-0.02	0.01	-1.03	63.23	9.75	-50.83	
1551801603453.595	179.53	0.96	9.03	-0.02	0.01	-1.03	63.26	9.79	-50.96	
1551801603465.643	179.53	0.96	9.02	-0.02	0.01	-1.03	63.29	10.11	-51.07	
1551801603477.691	179.53	0.96	9.02	-0.02	0.01	-1.03	63.32	10.36	-51.16	
1551801603489.739	179.53	0.96	9.01	-0.02	0.01	-1.03	63.34	10.27	-51.36	
1551801603501.787	179.53	0.96	9.01	-0.02	0.01	-1.03	63.35	10.21	-51.53	
1551801603513.835	179.53	0.96	9.0	-0.02	0.01	-1.03	63.22	10.15	-51.11	
1551801603525.883	179.53	0.95	8.99	-0.02	0.01	-1.03	63.12	10.11	-50.78	
1551801603537.931	179.53	0.95	8.98	-0.02	0.01	-1.03	63.32	9.94	-50.79	
1551801603549.979	179.53	0.96	8.96	-0.02	0.01	-1.03	63.48	9.8	-50.79	
1551801603562.027	179.53	0.96	8.96	-0.02	0.01	-1.03	63.32	10.11	-50.52	
1551801603574.075	179.53	0.96	8.95	-0.02	0.01	-1.03	63.2	10.36	-50.31	
1551801603586.123	179.52	0.96	8.95	-0.02	0.01	-1.03	63.38	10.28	-50.41	
1551801603598.171	179.52	0.96	8.94	-0.02	0.01	-1.03	63.53	10.21	-50.49	
1551801603610.219	179.53	0.95	8.94	-0.02	0.01	-1.03	63.79	10.16	-50.28	
1551801603622.267	179.52	0.95	8.93	-0.02	0.01	-1.03	64.0	10.11	-50.11	
1551801603634.315	179.52	0.95	8.92	-0.02	0.01	-1.03	63.6	9.94	-50.12	
1551801603646.363	179.53	0.95	8.91	-0.02	0.01	-1.03	63.28	9.8	-50.12	
1551801603658.411	179.53	0.95	8.9	-0.02	0.01	-1.03	63.45	9.97	-50.26	
1551801603670.459	179.53	0.95	8.89	-0.02	0.01	-1.03	63.58	10.1	-50.37	
1551801603682.507	179.53	0.95	8.89	-0.02	0.01	-1.03	63.55	9.93	-50.46	
1551801603694.555	179.53	0.95	8.87	-0.02	0.01	-1.03	63.52	9.79	-50.53	
1551801603706.603	179.53	0.95	8.86	-0.02	0.01	-1.03	63.5	9.68	-50.73	
1551801603718.651	179.53	0.95	8.85	-0.01	0.01	-1.03	63.48	9.59	-50.88	
1551801603730.699	179.53	0.95	8.83	-0.02	0.01	-1.03	63.61	9.66	-51.14	
1551801603742.747	179.53	0.95	8.82	-0.02	0.01	-1.03	63.71	9.72	-51.35	
1551801603754.795	179.53	0.95	8.81	-0.02	0.01	-1.03	63.65	9.9	-51.38	
1551801603766.843	179.53	0.95	8.8	-0.02	0.01	-1.03	63.61	10.05	-51.41	
1551801603778.891	179.53	0.95	8.81	-0.02	0.01	-1.03	63.57	10.46	-51.15	
1551801603790.939	179.53	0.95	8.81	-0.02	0.01	-1.03	63.54	10.78	-50.95	
1551801603802.987	179.53	0.95	8.82	-0.02	0.01	-1.03	63.65	10.75	-50.78	
1551801603815.035	179.54	0.94	8.82	-0.02	0.01	-1.03	63.75	10.73	-50.65	
1551801603827.083	179.54	0.94	8.83	-0.01	0.01	-1.03	63.68	10.72	-50.41	
1551801603839.131	179.54	0.94	8.84	-0.02	0.01	-1.03	63.63	10.7	-50.22	
1551801603851.179	179.54	0.94	8.84	-0.02	0.01	-1.03	63.58	10.69	-50.06	
1551801603863.227	179.54	0.94	8.85	-0.02	0.01	-1.03	63.55	10.69	-49.94	
1551801603875.275	179.54	0.94	8.84	-0.02	0.01	-1.03	63.66	10.4	-49.98	
1551801603887.323	179.54	0.94	8.84	-0.02	0.01	-1.03	63.76	10.16	-50.01	
1551801603899.371	179.54	0.94	8.84	-0.02	0.01	-1.03	63.69	10.4	-50.17	
1551801603911.419	179.54	0.94	8.84	-0.02	0.01	-1.03	63.63	10.59	-50.3	
1551801603923.467	179.54	0.94	8.84	-0.02	0.01	-1.04	63.59	10.32	-50.81	
1551801603935.515	179.54	0.94	8.83	-0.02	0.01	-1.03	63.55	10.1	-51.23	
1551801603947.563	179.54	0.94	8.83	-0.02	0.01	-1.03	63.67	10.36	-51.15	
1551801603959.611	179.54	0.94	8.84	-0.02	0.01	-1.03	63.76	10.56	-51.08	
1551801603971.659	179.54	0.94	8.83	-0.02	0.01	-1.03	63.55	10.29	-51.16	
1551801603983.707	179.54	0.94	8.83	-0.02	0.01	-1.03	63.38	10.08	-51.23	
1551801603995.755	179.54	0.94	8.82	-0.02	0.01	-1.03	63.53	10.05	-51.01	
1551801604007.803	179.54	0.94	8.82	-0.02	0.01	-1.03	63.65	10.03	-50.84	
1551801604019.851	179.54	0.94	8.81	-0.02	0.01	-1.03	63.6	9.87	-50.69	
1551801604031.899	179.54	0.94	8.8	-0.01	0.01	-1.03	63.56	9.74	-50.58	
1551801604043.947	179.54	0.94	8.79	-0.01	0.01	-1.03	63.39	9.78	-50.63	
1551801604055.995	179.54	0.94	8.78	-0.02	0.01	-1.03	63.25	9.81	-50.67	
1551801604068.043	179.54	0.94	8.77	-0.02	0.01	-1.03	63.28	9.84	-50.56	
1551801604080.091	179.54	0.94	8.77	-0.02	0.01	-1.03	63.31	9.86	-50.47	
1551801604092.139	179.54	0.94	8.76	-0.02	0.01	-1.03	63.05	9.73	-50.27	
1551801604104.187	179.54	0.94	8.74	-0.02	0.01	-1.03	62.83	9.63	-50.1	
1551801604116.235	179.54	0.94	8.73	-0.02	0.01	-1.03	62.95	9.55	-50.11	
1551801604128.283	179.54	0.94	8.72	-0.02	0.01	-1.03	63.04	9.49	-50.11	
1551801604140.331	179.53	0.94	8.71	-0.02	0.01	-1.03	62.97	9.44	-50.12	
1551801604152.379	179.54	0.94	8.69	-0.02	0.01	-1.03	62.92	9.4	-50.12	
1551801604164.427	179.54	0.94	8.68	-0.02	0.01	-1.03	63.02	9.65	-50.26	
1551801604176.475	179.54	0.94	8.68	-0.02	0.01	-1.03	63.1	9.85	-50.37	
1551801604188.523	179.54	0.93	8.68	-0.02	0.01	-1.03	63.44	10.01	-50.19	
1551801604200.571	179.54	0.94	8.68	-0.02	0.01	-1.03	63.72	10.14	-50.04	
1551801604212.619	179.54	0.94	8.67	-0.02	0.01	-1.03	63.66	10.1	-50.19	
1551801604224.667	179.54	0.94	8.67	-0.02	0.01	-1.03	63.61	10.07	-50.32	
1551801604236.715	179.54	0.94	8.67	-0.02	0.01	-1.03	63.71	10.04	-50.42	
1551801604248.763	179.54	0.94	8.66	-0.02	0.01	-1.03	63.8	10.02	-50.5	
1551801604260.811	179.54	0.94	8.66	-0.02	0.01	-1.03	63.72	10.01	-50.7	
1551801604272.859	179.54	0.94	8.65	-0.02	0.01	-1.03	63.66	9.99	-50.86	
1551801604284.907	179.54	0.94	8.65	-0.02	0.01	-1.03	63.75	9.98	-50.99	
1551801604296.955	179.54	0.93	8.64	-0.02	0.01	-1.03	63.83	9.98	-51.09	
1551801604309.003	179.54	0.93	8.64	-0.02	0.01	-1.03	64.03	9.97	-51.17	
1551801604321.051	179.54	0.93	8.63	-0.02	0.01	-1.03	64.19	9.96	-51.24	
1551801604333.099	179.54	0.93	8.63	-0.02	0.01	-1.03	63.89	10.1	-51.02	
1551801604345.147	179.54	0.93	8.63	-0.02	0.01	-1.03	63.65	10.21	-50.84	
1551801604357.195	179.54	0.93	8.63	-0.02	0.01	-1.03	63.46	10.3	-51.11	
1551801604369.243	179.54	0.94	8.64	-0.02	0.01	-1.03	63.31	10.37	-51.33	
1551801604381.291	179.54	0.94	8.64	-0.02	0.01	-1.03	63.19	10.28	-51.09	
1551801604393.339	179.54	0.94	8.64	-0.02	0.01	-1.03	63.09	10.22	-50.9	
1551801604405.387	179.54	0.93	8.64	-0.02	0.01	-1.03	63.3	10.02	-51.02	
1551801604417.435	179.54	0.93	8.63	-0.02	0.01	-1.03	63.46	9.86	-51.11	
1551801604429.483	179.54	0.93	8.63	-0.02	0.01	-1.03	63.45	10.02	-51.19	
1551801604441.531	179.54	0.93	8.63	-0.02	0.01	-1.03	63.44	10.15	-51.25	
1551801604453.579	179.54	0.93	8.63	-0.02	0.01	-1.03	63.58	10.11	-51.3	
1551801604465.627	179.54	0.93	8.63	-0.02	0.01	-1.03	63.69	10.07	-51.34	
1551801604477.675	179.54	0.93	8.62	-0.02	0.01	-1.03	63.63	10.05	-51.38	
1551801604489.723	179.54	0.93	8.62	-0.02	0.01	-1.03	63.59	10.03	-51.4	
1551801604501.771	179.54	0.93	8.62	-0.02	0.01	-1.03	63.55	9.87	-51.28	
1551801604513.819	179.54	0.93	8.61	-0.02	0.01	-1.03	63.53	9.74	-51.19	
1551801604525.867	179.54	0.93	8.6	-0.02	0.01	-1.03	63.5	9.78	-50.98	
1551801604537.915	179.54	0.93	8.6	-0.02	0.01	-1.03	63.49	9.81	-50.81	
1551801604549.963	179.54	0.93	8.59	-0.02	0.01	-1.03	63.47	9.84	-50.67	
1551801604562.011	179.54	0.93	8.59	-0.02	0.01	-1.03	63.46	9.86	-50.57	
1551801604574.059	179.54	0.93	8.58	-0.02	0.01	-1.03	63.45	9.73	-50.48	
1551801604586.107	179.54	0.93	8.57	-0.02	0.01	-1.03	63.44	9.63	-50.41	
1551801604598.155	179.54	0.93	8.57	-0.02	0.01	-1.03	63.58	9.84	-50.63	
1551801604610.203	179.54	0.93	8.57	-0.02	0.01	-1.03	63.69	10.0	-50.8	
1551801604622.251	179.54	0.93	8.57	-0.02	0.01	-1.03	63.49	10.27	-50.81	
1551801604634.299	179.54	0.93	8.58	-0.02	0.01	-1.03	63.33	10.49	-50.81	
1551801604646.347	179.54	0.93	8.58	-0.02	0.01	-1.03	63.06	10.38	-50.95	
1551801604658.395	179.54	0.93	8.59	-0.02	0.01	-1.03	62.85	10.29	-51.06	
1551801604670.443	179.54	0.93	8.59	-0.02	0.01	-1.03	62.96	10.22	-51.15	
1551801604682.491	179.54	0.93	8.59	-0.02	0.01	-1.03	63.05	10.17	-51.22	
1551801604694.539	179.54	0.94	8.59	-0.02	0.01	-1.03	62.98	10.26	-51.14	
1551801604706.587	179.54	0.93	8.6	-0.01	0.01	-1.03	62.92	10.34	-51.07	
1551801604718.635	179.54	0.93	8.6	-0.02	0.01	-1.03	63.31	9.98	-50.75	
1551801604730.683	179.54	0.93	8.59	-0.02	0.01	-1.03	63.61	9.69	-50.49	
1551801604742.731	179.54	0.93	8.58	-0.02	0.01	-1.04	63.72	9.6	-50.69	
1551801604754.779	179.54	0.93	8.57	-0.02	0.01	-1.03	63.8	9.52	-50.85	
1551801604766.827	179.54	0.93	8.56	-0.02	0.01	-1.03	63.44	9.75	-50.85	
1551801604778.875	179.54	0.93	8.56	-0.01	0.01	-1.03	63.15	9.93	-50.84	
1551801604790.923	179.54	0.93	8.56	-0.02	0.01	-1.03	63.06	10.07	-50.84	
1551801604802.971	179.54	0.93	8.56	-0.02	0.01	-1.03	62.99	10.19	-50.83	
1551801604815.019	179.54	0.93	8.56	-0.02	0.01	-1.03	62.93	10.14	-50.83	
1551801604827.067	179.54	0.93	8.57	-0.02	0.01	-1.03	62.88	10.1	-50.83	
1551801604839.115	179.54	0.93	8.57	-0.02	0.01	-1.03	62.85	10.07	-50.69	
1551801604851.163	179.54	0.93	8.57	-0.02	0.01	-1.03	62.82	10.04	-50.58	
1551801604863.211	179.54	0.93	8.57	-0.02	0.01	-1.03	62.79	10.31	-50.76	
1551801604875.259	179.54	0.93	8.58	-0.02	0.01	-1.03	62.77	10.52	-50.91	
1551801604887.307	179.54	0.93	8.59	-0.02	0.01	-1.03	62.9	10.4	-50.89	
1551801604899.355	179.54	0.93	8.59	-0.02	0.01	-1.03	63.0	10.31	-50.88	
1551801604911.403	179.54	0.94	8.6	-0.02	0.01	-1.03	63.23	10.24	-50.59	
1551801604923.451	179.54	0.94	8.6	-0.02	0.01	-1.03	63.41	10.18	-50.36	
1551801604935.499	179.54	0.94	8.6	-0.02	0.01	-1.03	63.12	10.13	-50.18	
1551801604947.547	179.54	0.94	8.6	-0.02	0.01	-1.03	62.9	10.09	-50.03	
1551801604959.595	179.54	0.93	8.6	-0.02	0.01	-1.03	62.86	10.21	-50.05	
1551801604971.643	179.54	0.94	8.61	-0.02	0.01	-1.03	62.83	10.29	-50.07	
1551801604983.691	179.54	0.94	8.61	-0.02	0.01	-1.03	62.8	10.37	-50.22	
1551801604995.739	179.54	0.94	8.62	-0.02	0.01	-1.03	62.78	10.42	-50.34	
1551801605007.787	179.54	0.94	8.62	-0.02	0.01	-1.03	62.91	10.33	-50.3	
1551801605019.835	179.54	0.94	8.63	-0.02	0.01	-1.03	63.01	10.25	-50.26	
1551801605031.883	179.54	0.94	8.63	-0.02	0.01	-1.03	62.95	10.33	-50.51	
1551801605043.931	179.54	0.94	8.64	-0.02	0.01	-1.03	62.9	10.39	-50.71	
1551801605055.979	179.54	0.94	8.64	-0.02	0.01	-1.03	63.14	10.3	-50.73	
1551801605068.027	179.54	0.94	8.64	-0.02	0.01	-1.03	63.34	10.23	-50.75	
1551801605080.075	179.54	0.94	8.64	-0.02	0.01	-1.04	63.35	10.46	-50.9	
1551801605092.123	179.54	0.93	8.65	-0.01	0.01	-1.03	63.37	10.64	-51.02	
1551801605104.171	179.54	0.93	8.66	-0.02	0.01	-1.03	63.09	10.64	-50.7	
1551801605116.219	179.54	0.93	8.67	-0.02	0.01	-1.03	62.87	10.64	-50.45	
1551801605128.267	179.54	0.93	8.68	-0.02	0.01	-1.03	63.12	10.79	-50.39	
1551801605140.315	179.54	0.93	8.69	-0.02	0.01	-1.03	63.32	10.9	-50.34	
1551801605152.363	179.54	0.93	8.7	-0.02	0.01	-1.04	63.2	10.71	-50.71	
1551801605164.411	179.54	0.92	8.71	-0.01	0.01	-1.03	63.1	10.56	-51.0	
1551801605176.459	179.54	0.92	8.72	-0.02	0.01	-1.03	63.16	10.43	-50.83	
1551801605188.507	179.54	0.93	8.72	-0.02	0.01	-1.03	63.21	10.34	-50.69	
1551801605200.555	179.54	0.93	8.72	-0.02	0.01	-1.03	62.97	10.26	-50.72	
1551801605212.603	179.54	0.93	8.72	-0.02	0.01	-1.03	62.77	10.19	-50.74	
1551801605224.651	179.54	0.93	8.72	-0.02	0.01	-1.03	62.61	10.14	-50.75	
1551801605236.699	179.54	0.93	8.72	-0.02	0.01	-1.03	62.49	10.1	-50.76	
1551801605248.747	179.54	0.93	8.72	-0.02	0.01	-1.03	62.67	10.07	-50.78	
1551801605260.795	179.54	0.93	8.71	-0.02	0.01	-1.03	62.82	10.05	-50.78	
1551801605272.843	179.54	0.93	8.71	-0.02	0.01	-1.03	63.08	10.17	-50.79	
1551801605284.891	179.54	0.93	8.71	-0.02	0.01	-1.03	63.29	10.26	-50.8	
1551801605296.939	179.54	0.93	8.71	-0.01	0.01	-1.03	63.46	10.2	-50.53	
1551801605308.987	179.54	0.93	8.71	-0.02	0.01	-1.03	63.59	10.15	-50.31	
1551801605321.035	179.54	0.93	8.71	-0.02	0.01	-1.03	63.27	9.96	-50.69	
1551801605333.083	179.54	0.93	8.7	-0.02	0.01	-1.03	63.01	9.82	-50.99	
1551801605345.131	179.54	0.93	8.7	-0.02	0.01	-1.03	63.09	9.99	-51.09	
1551801605357.179	179.54	0.93	8.7	-0.02	0.01	-1.03	63.16	10.12	-51.17	
1551801605369.227	179.54	0.93	8.7	-0.02	0.01	-1.03	63.35	10.23	-51.1	
1551801605381.275	179.54	0.93	8.69	-0.02	0.01	-1.03	63.51	10.31	-51.04	
1551801605393.323	179.54	0.93	8.7	-0.02	0.01	-1.03	63.63	10.52	-50.86	
1551801605405.371	179.54	0.93	8.71	-0.02	0.01	-1.03	63.73	10.69	-50.72	
1551801605417.419	179.53	0.93	8.71	-0.01	0.01	-1.03	63.95	10.54	-50.6	
1551801605429.467	179.53	0.93	8.71	-0.02	0.01	-1.03	64.13	10.42	-50.5	
1551801605441.515	179.54	0.93	8.71	-0.01	0.01	-1.03	63.98	10.32	-50.43	
1551801605453.563	179.54	0.93	8.71	-0.02	0.01	-1.03	63.87	10.25	-50.37	
1551801605465.611	179.54	0.93	8.71	-0.02	0.01	-1.03	63.78	10.47	-50.6	
1551801605477.659	179.54	0.93	8.72	-0.02	0.01	-1.03	63.71	10.65	-50.78	
1551801605489.707	179.53	0.93	8.72	-0.02	0.01	-1.04	63.93	10.51	-50.79	
1551801605501.755	179.53	0.92	8.72	-0.01	0.01	-1.03	64.11	10.39	-50.79	
1551801605513.803	179.53	0.92	8.72	-0.02	0.01	-1.03	63.97	10.3	-50.66	
1551801605525.851	179.53	0.92	8.72	-0.02	0.01	-1.03	63.86	10.23	-50.55	
1551801605537.899	179.53	0.92	8.72	-0.01	0.01	-1.03	63.91	10.46	-51.02	
1551801605549.947	179.53	0.92	8.72	-0.02	0.01	-1.03	63.96	10.64	-51.39	
1551801605561.995	179.53	0.92	8.73	-0.01	0.01	-1.03	63.85	10.5	-51.41	
1551801605574.043	179.53	0.92	8.73	-0.02	0.01	-1.03	63.76	10.39	-51.43	
1551801605586.091	179.53	0.92	8.72	-0.02	0.01	-1.03	63.69	10.16	-51.31	
1551801605598.139	179.53	0.92	8.72	-0.02	0.01	-1.03	63.64	9.97	-51.21	
1551801605610.187	179.53	0.92	8.72	-0.02	0.01	-1.03	63.73	10.25	-50.99	
1551801605622.235	179.53	0.92	8.72	-0.02	0.01	-1.03	63.81	10.47	-50.82	
1551801605634.283	179.53	0.92	8.72	-0.02	0.01	-1.03	63.87	10.37	-50.82	
1551801605646.331	179.53	0.92	8.72	-0.01	0.01	-1.03	63.92	10.28	-50.82	
1551801605658.379	179.53	0.92	8.72	-0.02	0.01	-1.03	63.68	10.07	-50.68	
1551801605670.427	179.53	0.92	8.71	-0.02	0.01	-1.03	63.48	9.9	-50.57	
1551801605682.475	179.53	0.92	8.71	-0.02	0.01	-1.03	63.33	10.05	-50.48	
1551801605694.523	179.53	0.92	8.7	-0.02	0.01	-1.03	63.2	10.17	-50.41	
1551801605706.571	179.53	0.92	8.71	-0.02	0.01	-1.03	63.1	10.41	-50.63	
1551801605718.619	179.53	0.92	8.71	-0.01	0.01	-1.03	63.02	10.6	-50.81	
1551801605730.667	179.53	0.92	8.72	-0.02	0.01	-1.03	63.24	10.47	-50.81	
1551801605742.715	179.53	0.92	8.72	-0.02	0.01	-1.03	63.42	10.36	-50.81	
1551801605754.763	179.53	0.91	8.72	-0.01	0.01	-1.03	63.42	10.42	-51.09	
1551801605766.811	179.53	0.91	8.73	-0.02	0.01	-1.03	63.42	10.47	-51.31	
1551801605778.859	179.53	0.91	8.73	-0.02	0.01	-1.03	63.27	10.5	-51.35	
1551801605790.907	179.53	0.91	8.74	-0.02	0.01	-1.03	63.16	10.53	-51.38	
1551801605802.955	179.53	0.92	8.74	-0.02	0.01	-1.03	63.21	10.42	-51.4	
1551801605815.003	179.53	0.92	8.74	-0.02	0.01	-1.03	63.25	10.32	-51.42	
1551801605827.051	179.53	0.91	8.75	-0.01	0.01	-1.03	63.42	10.67	-51.44	
1551801605839.099	179.53	0.91	8.76	-0.02	0.01	-1.03	63.56	10.95	-51.45	
1551801605851.147	179.54	0.91	8.77	-0.02	0.01	-1.03	63.68	10.89	-51.46	
1551801605863.195	179.53	0.92	8.78	-0.02	0.01	-1.03	63.77	10.84	-51.47	
1551801605875.243	179.54	0.92	8.78	-0.02	0.01	-1.03	63.7	10.52	-51.48	
1551801605887.291	179.54	0.92	8.78	-0.02	0.01	-1.03	63.64	10.26	-51.48	
1551801605899.339	179.54	0.92	8.78	-0.02	0.01	-1.03	63.88	10.2	-51.35	
1551801605911.387	179.54	0.92	8.77	-0.02	0.01	-1.03	64.07	10.15	-51.24	
1551801605923.435	179.54	0.92	8.77	-0.02	0.01	-1.03	64.08	10.25	-51.3	
1551801605935.483	179.54	0.92	8.77	-0.02	0.01	-1.03	64.09	10.33	-51.34	
1551801605947.531	179.54	0.92	8.77	-0.02	0.01	-1.03	63.81	10.54	-51.23	
1551801605959.579	179.54	0.92	8.78	-0.01	0.01	-1.03	63.59	10.7	-51.15	
1551801605971.627	179.54	0.92	8.78	-0.02	0.01	-1.03	63.55	10.27	-50.95	
1551801605983.675	179.54	0.92	8.77	-0.02	0.01	-1.03	63.53	9.92	-50.78	
1551801605995.723	179.54	0.92	8.76	-0.02	0.01	-1.03	63.65	9.92	-50.93	
1551801606007.771	179.54	0.92	8.75	-0.02	0.01	-1.03	63.74	9.93	-51.04	
1551801606019.819	179.54	0.92	8.74	-0.02	0.01	-1.03	63.82	10.07	-50.86	
1551801606031.867	179.54	0.92	8.74	-0.02	0.01	-1.03	63.88	10.19	-50.71	
1551801606043.915	179.54	0.92	8.74	-0.02	0.01	-1.03	63.93	10.28	-51.01	
1551801606055.963	179.53	0.92	8.74	-0.02	0.01	-1.03	63.97	10.35	-51.25	
1551801606068.011	179.53	0.92	8.73	-0.02	0.01	-1.03	63.86	10.27	-51.02	
1551801606080.059	179.53	0.92	8.73	-0.02	0.01	-1.03	63.77	10.21	-50.84	
1551801606092.107	179.53	0.92	8.73	-0.02	0.01	-1.03	63.84	10.15	-50.84	
1551801606104.155	179.53	0.92	8.72	-0.02	0.01	-1.03	63.9	10.11	-50.83	
1551801606116.203	179.53	0.92	8.71	-0.02	0.01	-1.03	63.8	9.65	-50.83	
1551801606128.251	179.53	0.92	8.69	-0.02	0.01	-1.03	63.72	9.28	-50.83	
1551801606140.299	179.53	0.92	8.68	-0.02	0.01	-1.04	63.52	9.27	-50.69	
1551801606152.347	179.53	0.92	8.66	-0.02	0.01	-1.03	63.35	9.26	-50.58	
1551801606164.395	179.53	0.92	8.65	-0.02	0.01	-1.03	63.37	9.54	-50.49	
1551801606176.443	179.53	0.92	8.64	-0.02	0.01	-1.03	63.38	9.76	-50.42	
1551801606188.491	179.53	0.92	8.64	-0.02	0.01	-1.03	63.38	9.8	-50.22	
1551801606200.539	179.53	0.92	8.63	-0.01	0.01	-1.03	63.39	9.83	-50.07	
1551801606212.587	179.53	0.92	8.62	-0.02	0.01	-1.03	63.39	9.85	-49.94	
1551801606224.635	179.53	0.92	8.62	-0.02	0.01	-1.03	63.4	9.87	-49.84	
1551801606236.683	179.53	0.92	8.61	-0.02	0.01	-1.03	63.54	9.74	-49.76	
1551801606248.731	179.52	0.91	8.6	-0.01	0.01	-1.03	63.66	9.64	-49.7	
1551801606260.779	179.52	0.91	8.59	-0.02	0.01	-1.03	63.47	9.7	-49.79	
1551801606272.827	179.52	0.92	8.59	-0.02	0.01	-1.03	63.31	9.75	-49.85	
1551801606284.875	179.52	0.92	8.58	-0.02	0.01	-1.03	63.33	9.65	-50.05	
1551801606296.923	179.53	0.92	8.57	-0.02	0.01	-1.03	63.35	9.56	-50.2	
1551801606308.971	179.53	0.92	8.57	-0.02	0.01	-1.03	63.36	9.64	-50.19	
1551801606321.019	179.53	0.92	8.56	-0.02	0.01	-1.03	63.37	9.7	-50.18	
1551801606333.067	179.53	0.92	8.56	-0.02	0.01	-1.03	63.24	9.89	-50.44	
1551801606345.115	179.53	0.92	8.56	-0.01	0.01	-1.03	63.13	10.04	-50.65	
1551801606357.163	179.53	0.91	8.55	-0.02	0.01	-1.03	63.19	10.02	-50.82	
1551801606369.211	179.53	0.91	8.55	-0.02	0.01	-1.03	63.23	10.01	-50.96	
1551801606381.259	179.52	0.92	8.55	-0.02	0.01	-1.03	63.55	9.99	-50.79	
1551801606393.307	179.52	0.92	8.55	-0.02	0.01	-1.03	63.81	9.98	-50.66	
1551801606405.355	179.53	0.92	8.55	-0.02	0.01	-1.03	63.73	9.98	-50.28	
1551801606417.403	179.53	0.92	8.54	-0.02	0.01	-1.03	63.67	9.97	-49.98	
1551801606429.451	179.53	0.92	8.54	-0.02	0.01	-1.03	63.47	9.96	-50.01	
1551801606441.499	179.53	0.92	8.54	-0.02	0.01	-1.03	63.32	9.96	-50.03	
1551801606453.547	179.53	0.92	8.54	-0.02	0.01	-1.03	63.2	9.96	-50.33	
1551801606465.595	179.53	0.92	8.54	-0.02	0.01	-1.03	63.1	9.95	-50.56	
1551801606477.643	179.53	0.91	8.54	-0.01	0.01	-1.03	63.3	9.81	-50.48	
1551801606489.691	179.53	0.92	8.53	-0.02	0.01	-1.03	63.47	9.69	-50.41	
1551801606501.739	179.53	0.91	8.53	-0.02	0.01	-1.03	63.31	9.74	-50.49	
1551801606513.787	179.52	0.92	8.52	-0.02	0.01	-1.03	63.19	9.78	-50.55	
1551801606525.835	179.52	0.92	8.52	-0.02	0.01	-1.03	63.09	9.96	-50.47	
1551801606537.883	179.52	0.92	8.52	-0.02	0.01	-1.03	63.01	10.1	-50.4	
1551801606549.931	179.52	0.92	8.52	-0.02	0.01	-1.03	62.95	9.78	-50.35	
1551801606561.979	179.52	0.92	8.51	-0.02	0.01	-1.03	62.9	9.53	-50.3	
1551801606574.027	179.52	0.92	8.51	-0.02	0.01	-1.03	63.0	10.04	-50.54	
1551801606586.075	179.52	0.92	8.52	-0.01	0.01	-1.03	63.09	10.44	-50.74	
1551801606598.123	179.51	0.92	8.52	-0.02	0.01	-1.03	63.44	10.34	-50.61	
1551801606610.171	179.51	0.92	8.52	-0.02	0.01	-1.03	63.72	10.26	-50.52	
1551801606622.219	179.51	0.92	8.52	-0.02	0.01	-1.03	63.66	10.2	-50.72	
1551801606634.267	179.51	0.92	8.52	-0.02	0.01	-1.03	63.61	10.15	-50.87	
1551801606646.315	179.51	0.92	8.52	-0.02	0.01	-1.03	63.85	10.39	-51.0	
1551801606658.363	179.52	0.92	8.54	-0.02	0.0	-1.03	64.05	10.59	-51.1	
1551801606670.411	179.52	0.92	8.54	-0.02	0.0	-1.03	64.06	10.46	-50.91	
1551801606682.459	179.53	0.92	8.55	-0.02	0.01	-1.03	64.08	10.35	-50.75	
1551801606694.507	179.53	0.92	8.56	-0.02	0.0	-1.03	63.8	10.27	-50.63	
1551801606706.555	179.54	0.92	8.57	-0.02	-0.0	-1.03	63.58	10.21	-50.53	
1551801606718.603	179.54	0.92	8.56	-0.02	0.01	-1.03	63.69	9.87	-50.72	
1551801606730.651	179.53	0.93	8.55	-0.02	0.01	-1.03	63.78	9.6	-50.88	
1551801606742.699	179.54	0.93	8.54	-0.02	0.01	-1.03	63.7	9.67	-50.73	
1551801606754.747	179.55	0.93	8.54	-0.02	0.0	-1.03	63.65	9.72	-50.61	
1551801606766.795	179.55	0.93	8.54	-0.02	0.0	-1.03	63.74	9.77	-50.51	
1551801606778.843	179.55	0.93	8.54	-0.01	0.01	-1.03	63.82	9.8	-50.44	
1551801606790.891	179.54	0.93	8.53	-0.01	0.01	-1.04	63.88	10.11	-50.38	
1551801606802.939	179.53	0.93	8.53	-0.02	0.02	-1.04	63.93	10.36	-50.33	
1551801606814.987	179.52	0.93	8.52	-0.02	0.02	-1.03	63.83	9.85	-50.15	
1551801606827.035	179.52	0.93	8.5	-0.02	0.01	-1.03	63.74	9.44	-50.01	
1551801606839.083	179.51	0.93	8.49	-0.02	0.01	-1.03	63.53	9.4	-50.17	
1551801606851.131	179.52	0.93	8.48	-0.02	0.01	-1.03	63.37	9.37	-50.3	
1551801606863.179	179.53	0.92	8.48	-0.02	0.0	-1.03	63.09	9.63	-50.13	
1551801606875.227	179.53	0.93	8.49	-0.02	0.0	-1.03	62.87	9.83	-49.99	
1551801606887.275	179.54	0.93	8.48	-0.02	0.0	-1.03	63.12	9.71	-50.02	
1551801606899.323	179.54	0.93	8.48	-0.02	0.01	-1.03	63.32	9.62	-50.04	
1551801606911.371	179.53	0.93	8.47	-0.02	0.01	-1.03	63.63	9.54	-50.33	
1551801606923.419	179.53	0.93	8.45	-0.02	0.02	-1.03	63.87	9.48	-50.57	
1551801606935.467	179.52	0.93	8.44	-0.01	0.01	-1.03	63.78	9.57	-50.62	
1551801606947.515	179.52	0.93	8.44	-0.02	0.01	-1.03	63.7	9.64	-50.66	
1551801606959.563	179.53	0.93	8.43	-0.02	0.01	-1.03	63.79	9.56	-50.55	
1551801606971.611	179.53	0.93	8.42	-0.02	0.01	-1.03	63.86	9.5	-50.47	
1551801606983.659	179.53	0.93	8.42	-0.01	0.01	-1.03	63.91	9.59	-50.68	
1551801606995.707	179.53	0.93	8.41	-0.02	0.01	-1.03	63.95	9.66	-50.84	
1551801607007.755	179.53	0.93	8.41	-0.02	0.01	-1.04	63.84	9.86	-50.7	
1551801607019.803	179.53	0.93	8.41	-0.02	0.01	-1.03	63.76	10.02	-50.59	
1551801607031.851	179.54	0.94	8.42	-0.02	0.0	-1.03	63.69	10.28	-50.63	
1551801607043.899	179.54	0.94	8.43	-0.02	0.0	-1.03	63.63	10.5	-50.67	
1551801607055.947	179.54	0.93	8.44	-0.01	0.01	-1.04	63.59	10.53	-50.84	
1551801607067.995	179.54	0.93	8.45	-0.02	0.01	-1.03	63.55	10.55	-50.97	
1551801607080.043	179.54	0.93	8.46	-0.02	0.01	-1.03	63.53	10.43	-51.08	
1551801607092.091	179.53	0.93	8.46	-0.02	0.01	-1.03	63.5	10.33	-51.16	
1551801607104.139	179.53	0.93	8.46	-0.02	0.01	-1.03	63.34	10.26	-51.23	
1551801607116.187	179.53	0.93	8.47	-0.02	0.01	-1.03	63.21	10.19	-51.28	
1551801607128.235	179.53	0.93	8.47	-0.02	0.01	-1.03	63.4	10.29	-50.92	
1551801607140.283	179.53	0.93	8.48	-0.02	0.01	-1.03	63.54	10.36	-50.62	
1551801607152.331	179.53	0.93	8.49	-0.02	0.01	-1.03	63.23	10.28	-50.66	
1551801607164.379	179.54	0.93	8.49	-0.02	0.01	-1.03	62.98	10.21	-50.69	
1551801607176.427	179.54	0.93	8.5	-0.02	0.01	-1.03	62.93	10.3	-50.58	
1551801607188.475	179.54	0.93	8.51	-0.01	0.01	-1.03	62.88	10.37	-50.49	
1551801607200.523	179.54	0.93	8.51	-0.02	0.01	-1.03	62.99	10.14	-50.28	
1551801607212.571	179.54	0.93	8.51	-0.02	0.01	-1.03	63.07	9.96	-50.11	
1551801607224.619	179.54	0.93	8.52	-0.02	0.0	-1.03	63.0	10.1	-50.12	
1551801607236.667	179.55	0.93	8.52	-0.02	0.01	-1.03	62.94	10.21	-50.12	
1551801607248.715	179.55	0.93	8.53	-0.02	0.01	-1.03	62.89	10.3	-50.4	
1551801607260.763	179.55	0.93	8.54	-0.02	0.01	-1.03	62.85	10.37	-50.62	
1551801607272.811	179.54	0.93	8.55	-0.02	0.01	-1.03	62.96	10.57	-50.66	
1551801607284.859	179.54	0.93	8.56	-0.01	0.01	-1.03	63.05	10.73	-50.69	
1551801607296.907	179.53	0.92	8.56	-0.01	0.01	-1.03	63.27	10.57	-50.44	
1551801607308.955	179.53	0.92	8.57	-0.01	0.01	-1.03	63.44	10.44	-50.24	
1551801607321.003	179.54	0.92	8.57	-0.02	0.01	-1.03	63.58	10.34	-50.63	
1551801607333.051	179.54	0.92	8.58	-0.02	0.01	-1.03	63.69	10.26	-50.94	
1551801607345.099	179.54	0.92	8.58	-0.02	0.0	-1.03	63.92	10.06	-51.06	
1551801607357.147	179.55	0.93	8.58	-0.02	0.0	-1.03	64.1	9.89	-51.14	
1551801607369.195	179.55	0.92	8.57	-0.01	0.01	-1.03	64.25	9.76	-51.08	
1551801607381.243	179.55	0.93	8.56	-0.02	0.01	-1.03	64.37	9.65	-51.03	
1551801607393.291	179.55	0.92	8.55	-0.02	0.01	-1.03	64.32	9.71	-51.12	
1551801607405.339	179.55	0.92	8.54	-0.02	0.01	-1.03	64.28	9.76	-51.2	
1551801607417.387	179.54	0.93	8.53	-0.02	0.01	-1.03	64.11	9.79	-51.12	
1551801607429.435	179.54	0.93	8.52	-0.02	0.01	-1.03	63.97	9.82	-51.06	
1551801607441.483	179.54	0.93	8.52	-0.02	0.01	-1.03	63.57	9.99	-50.88	
1551801607453.531	179.54	0.93	8.52	-0.02	0.01	-1.03	63.25	10.12	-50.73	
1551801607465.579	179.54	0.93	8.53	-0.02	0.01	-1.03	63.43	10.23	-50.47	
1551801607477.627	179.54	0.93	8.53	-0.02	0.01	-1.03	63.57	10.31	-50.26	
1551801607489.675	179.54	0.92	8.54	-0.02	0.01	-1.03	63.68	10.38	-50.38	
1551801607501.723	179.54	0.92	8.54	-0.02	0.01	-1.03	63.77	10.44	-50.46	
1551801607513.771	179.54	0.93	8.55	-0.02	0.01	-1.03	63.55	10.34	-50.53	
1551801607525.819	179.54	0.92	8.56	-0.02	0.01	-1.03	63.38	10.26	-50.59	
1551801607537.867	179.55	0.93	8.56	-0.02	0.01	-1.03	63.53	10.19	-50.5	
1551801607549.915	179.55	0.93	8.56	-0.02	0.01	-1.03	63.65	10.14	-50.43	
1551801607561.963	179.55	0.93	8.56	-0.02	0.01	-1.03	63.6	10.25	-50.37	
1551801607574.011	179.55	0.93	8.56	-0.02	0.01	-1.03	63.56	10.33	-50.32	
1551801607586.059	179.54	0.93	8.57	-0.02	0.01	-1.03	63.68	10.39	-50.56	
1551801607598.107	179.54	0.93	8.57	-0.02	0.01	-1.03	63.77	10.44	-50.75	
1551801607610.155	179.54	0.93	8.57	-0.02	0.01	-1.03	63.7	10.49	-50.76	
1551801607622.203	179.53	0.92	8.58	-0.02	0.01	-1.03	63.64	10.52	-50.77	
1551801607634.251	179.54	0.92	8.58	-0.02	0.01	-1.03	63.59	10.12	-50.78	
1551801607646.299	179.54	0.92	8.57	-0.01	0.01	-1.03	63.56	9.8	-50.79	
1551801607658.347	179.54	0.92	8.58	-0.02	0.01	-1.03	63.67	10.25	-50.79	
1551801607670.395	179.54	0.92	8.59	-0.02	0.01	-1.03	63.76	10.62	-50.8	
1551801607682.443	179.54	0.92	8.59	-0.01	0.01	-1.03	63.69	10.48	-50.66	
1551801607694.491	179.54	0.92	8.6	-0.02	0.01	-1.03	63.64	10.37	-50.56	
1551801607706.539	179.54	0.92	8.6	-0.02	0.01	-1.03	63.59	10.43	-50.61	
1551801607718.587	179.54	0.92	8.61	-0.02	0.01	-1.03	63.56	10.47	-50.65	
1551801607730.635	179.54	0.92	8.61	-0.02	0.01	-1.03	63.67	10.51	-50.68	
1551801607742.683	179.53	0.92	8.61	-0.02	0.01	-1.03	63.76	10.54	-50.71	
1551801607754.731	179.53	0.92	8.62	-0.02	0.01	-1.03	63.98	10.42	-50.73	
1551801607766.779	179.53	0.92	8.62	-0.02	0.01	-1.03	64.15	10.32	-50.75	
1551801607778.827	179.53	0.92	8.62	-0.01	0.01	-1.03	64.0	10.39	-50.76	
1551801607790.875	179.53	0.92	8.62	-0.02	0.01	-1.03	63.88	10.44	-50.77	
1551801607802.923	179.53	0.92	8.63	-0.02	0.01	-1.03	63.79	10.48	-50.92	
1551801607814.971	179.53	0.92	8.63	-0.02	0.01	-1.03	63.71	10.52	-51.04	
1551801607827.019	179.53	0.92	8.64	-0.02	0.01	-1.03	63.65	10.54	-50.99	
1551801607839.067	179.53	0.92	8.65	-0.02	0.01	-1.03	63.61	10.57	-50.96	
1551801607851.115	179.54	0.92	8.65	-0.02	0.01	-1.03	63.42	10.58	-50.79	
1551801607863.163	179.53	0.92	8.66	-0.02	0.01	-1.03	63.28	10.6	-50.66	
1551801607875.211	179.54	0.92	8.67	-0.02	0.01	-1.03	63.16	10.47	-50.55	
1551801607887.259	179.53	0.92	8.67	-0.02	0.01	-1.03	63.07	10.36	-50.47	
1551801607899.307	179.53	0.92	8.67	-0.02	0.01	-1.03	63.42	9.99	-50.68	
1551801607911.355	179.53	0.92	8.66	-0.02	0.01	-1.03	63.71	9.7	-50.84	
1551801607923.403	179.53	0.92	8.65	-0.02	0.01	-1.03	63.79	9.75	-50.84	
1551801607935.451	179.53	0.92	8.64	-0.02	0.01	-1.03	63.86	9.79	-50.83	
1551801607947.499	179.53	0.92	8.63	-0.02	0.01	-1.03	63.63	9.82	-50.97	
1551801607959.547	179.53	0.92	8.63	-0.02	0.01	-1.03	63.44	9.84	-51.07	
1551801607971.595	179.54	0.92	8.63	-0.02	0.0	-1.03	63.58	9.86	-51.16	
1551801607983.643	179.54	0.92	8.63	-0.02	0.0	-1.03	63.69	9.88	-51.23	
1551801607995.691	179.55	0.92	8.62	-0.02	0.01	-1.04	63.92	9.89	-50.87	
1551801608007.739	179.55	0.92	8.62	-0.02	0.0	-1.03	64.1	9.9	-50.59	
1551801608019.787	179.55	0.92	8.61	-0.02	0.01	-1.03	63.96	9.77	-50.63	
1551801608031.835	179.55	0.92	8.6	-0.02	0.01	-1.03	63.85	9.66	-50.67	
1551801608043.883	179.54	0.92	8.59	-0.02	0.01	-1.03	63.91	9.72	-50.56	
1551801608055.931	179.54	0.92	8.58	-0.02	0.01	-1.03	63.95	9.76	-50.48	
1551801608067.979	179.54	0.92	8.57	-0.02	0.01	-1.03	63.99	9.66	-50.54	
1551801608080.027	179.54	0.92	8.56	-0.02	0.01	-1.03	64.01	9.57	-50.6	
1551801608092.075	179.54	0.93	8.55	-0.02	0.01	-1.03	63.75	9.65	-50.5	
1551801608104.123	179.54	0.92	8.55	-0.02	0.01	-1.03	63.54	9.7	-50.43	
1551801608116.171	179.54	0.93	8.54	-0.02	0.01	-1.04	63.66	9.75	-50.37	
1551801608128.219	179.55	0.93	8.54	-0.02	0.01	-1.03	63.75	9.79	-50.32	
1551801608140.267	179.55	0.93	8.53	-0.02	0.01	-1.03	63.83	9.82	-50.15	
1551801608152.315	179.54	0.93	8.53	-0.02	0.01	-1.03	63.89	9.84	-50.01	
1551801608164.363	179.54	0.93	8.52	-0.02	0.01	-1.03	63.79	9.72	-50.31	
1551801608176.411	179.54	0.93	8.51	-0.01	0.01	-1.03	63.72	9.62	-50.55	
1551801608188.459	179.54	0.93	8.51	-0.02	0.01	-1.03	63.65	9.69	-50.74	
1551801608200.507	179.54	0.93	8.5	-0.02	0.01	-1.03	63.61	9.74	-50.89	
1551801608212.555	179.54	0.93	8.49	-0.02	0.01	-1.03	63.71	9.78	-50.88	
1551801608224.603	179.54	0.93	8.49	-0.02	0.01	-1.03	63.79	9.81	-50.86	
1551801608236.651	179.54	0.93	8.49	-0.02	0.01	-1.03	63.72	9.84	-50.85	
1551801608248.699	179.54	0.93	8.48	-0.02	0.01	-1.03	63.66	9.86	-50.85	
1551801608260.747	179.54	0.93	8.48	-0.02	0.01	-1.03	63.75	9.88	-50.98	
1551801608272.795	179.54	0.93	8.48	-0.02	0.01	-1.03	63.82	9.89	-51.08	
1551801608284.843	179.54	0.93	8.48	-0.02	0.01	-1.03	63.74	9.9	-51.17	
1551801608296.891	179.54	0.93	8.48	-0.02	0.01	-1.03	63.68	9.91	-51.23	
1551801608308.939	179.54	0.93	8.48	-0.02	0.01	-1.03	63.48	10.06	-50.88	
1551801608320.987	179.54	0.93	8.48	-0.02	0.01	-1.03	63.32	10.18	-50.59	
1551801608333.035	179.54	0.93	8.48	-0.02	0.01	-1.03	63.2	10.27	-50.64	
1551801608345.083	179.54	0.93	8.49	-0.02	0.01	-1.03	63.1	10.35	-50.67	
1551801608357.131	179.54	0.93	8.49	-0.02	0.01	-1.03	63.45	10.12	-50.98	
1551801608369.179	179.54	0.93	8.49	-0.02	0.01	-1.03	63.73	9.95	-51.22	
1551801608381.227	179.54	0.94	8.49	-0.02	0.01	-1.03	63.66	9.8	-50.86	
1551801608393.275	179.54	0.94	8.48	-0.02	0.01	-1.03	63.61	9.69	-50.58	
1551801608405.323	179.54	0.93	8.47	-0.02	0.01	-1.03	63.57	9.6	-50.76	
1551801608417.371	179.54	0.93	8.47	-0.02	0.01	-1.03	63.54	9.52	-50.91	
1551801608429.419	179.54	0.93	8.46	-0.02	0.01	-1.03	63.52	9.61	-50.76	
1551801608441.467	179.54	0.93	8.45	-0.02	0.01	-1.03	63.49	9.67	-50.63	
1551801608453.515	179.54	0.94	8.45	-0.02	0.01	-1.03	63.48	9.59	-50.67	
1551801608465.563	179.54	0.94	8.44	-0.02	0.01	-1.03	63.47	9.52	-50.7	
1551801608477.611	179.54	0.94	8.43	-0.02	0.01	-1.03	63.45	9.6	-50.72	
1551801608489.659	179.54	0.94	8.43	-0.02	0.01	-1.03	63.45	9.67	-50.74	
1551801608501.707	179.54	0.94	8.43	-0.02	0.01	-1.03	63.3	9.72	-50.62	
1551801608513.755	179.54	0.93	8.42	-0.01	0.01	-1.03	63.18	9.77	-50.52	
1551801608525.803	179.54	0.93	8.42	-0.02	0.01	-1.03	63.22	9.8	-50.58	
1551801608537.851	179.54	0.93	8.42	-0.02	0.01	-1.03	63.26	9.83	-50.63	
1551801608549.899	179.54	0.94	8.42	-0.02	0.01	-1.03	63.43	9.99	-50.67	
1551801608561.947	179.54	0.93	8.42	-0.02	0.01	-1.03	63.57	10.13	-50.7	
1551801608573.995	179.54	0.93	8.43	-0.02	0.01	-1.03	63.4	10.23	-50.72	
1551801608586.043	179.54	0.93	8.44	-0.02	0.01	-1.03	63.26	10.32	-50.74	
1551801608598.091	179.54	0.93	8.44	-0.02	0.01	-1.03	63.29	10.24	-50.89	
1551801608610.139	179.54	0.93	8.45	-0.02	0.01	-1.03	63.31	10.18	-51.01	
1551801608622.187	179.54	0.93	8.46	-0.02	0.01	-1.03	63.19	10.56	-50.84	
1551801608634.235	179.54	0.93	8.48	-0.02	0.01	-1.03	63.09	10.86	-50.7	
1551801608646.283	179.54	0.93	8.49	-0.02	0.01	-1.03	62.87	10.68	-50.58	
1551801608658.331	179.54	0.93	8.5	-0.02	0.01	-1.04	62.69	10.53	-50.49	
1551801608670.379	179.54	0.93	8.51	-0.02	0.01	-1.03	62.84	10.27	-50.42	
1551801608682.427	179.54	0.93	8.51	-0.02	0.01	-1.03	62.95	10.06	-50.36	
1551801608694.475	179.54	0.93	8.51	-0.02	0.01	-1.03	63.19	10.04	-50.32	
1551801608706.523	179.54	0.93	8.51	-0.02	0.01	-1.03	63.38	10.02	-50.28	
1551801608718.571	179.54	0.93	8.51	-0.02	0.01	-1.03	63.53	10.0	-50.39	
1551801608730.619	179.54	0.93	8.51	-0.02	0.01	-1.03	63.65	9.99	-50.47	
1551801608742.667	179.54	0.93	8.51	-0.02	0.01	-1.03	63.6	10.12	-50.4	
1551801608754.715	179.54	0.93	8.51	-0.02	0.01	-1.03	63.56	10.23	-50.35	
1551801608766.763	179.54	0.93	8.51	-0.02	0.01	-1.03	63.67	10.17	-50.31	
1551801608778.811	179.54	0.93	8.52	-0.01	0.01	-1.03	63.76	10.13	-50.27	
1551801608790.859	179.54	0.93	8.51	-0.02	0.01	-1.03	63.55	9.81	-50.24	
1551801608802.907	179.53	0.93	8.5	-0.02	0.01	-1.03	63.38	9.55	-50.22	
1551801608814.955	179.53	0.93	8.49	-0.02	0.01	-1.03	63.24	9.63	-50.48	
1551801608827.003	179.53	0.93	8.49	-0.02	0.01	-1.03	63.14	9.69	-50.68	
1551801608839.051	179.53	0.93	8.48	-0.02	0.01	-1.03	63.33	9.6	-50.98	
1551801608851.099	179.54	0.93	8.48	-0.02	0.01	-1.03	63.49	9.53	-51.23	
1551801608863.147	179.54	0.93	8.47	-0.02	0.01	-1.03	63.48	9.47	-51.14	
1551801608875.195	179.54	0.93	8.46	-0.02	0.01	-1.03	63.46	9.42	-51.08	
1551801608887.243	179.53	0.93	8.45	-0.02	0.01	-1.03	63.45	9.67	-51.03	
1551801608899.291	179.53	0.93	8.45	-0.02	0.01	-1.03	63.45	9.86	-50.98	
1551801608911.339	179.53	0.93	8.45	-0.02	0.01	-1.03	63.44	9.88	-50.95	
1551801608923.387	179.53	0.93	8.44	-0.02	0.01	-1.03	63.43	9.89	-50.92	
1551801608935.435	179.53	0.93	8.44	-0.02	0.01	-1.03	63.57	9.76	-50.9	
1551801608947.483	179.53	0.93	8.43	-0.02	0.01	-1.03	63.68	9.65	-50.89	
1551801608959.531	179.53	0.93	8.43	-0.02	0.01	-1.03	63.77	9.71	-50.6	
1551801608971.579	179.53	0.93	8.43	-0.02	0.01	-1.03	63.84	9.76	-50.37	
1551801608983.627	179.53	0.93	8.42	-0.02	0.01	-1.03	63.76	9.51	-50.59	
1551801608995.675	179.53	0.93	8.4	-0.02	0.01	-1.03	63.69	9.31	-50.78	
1551801609007.723	179.53	0.93	8.4	-0.02	0.01	-1.03	63.63	9.58	-51.06	
1551801609019.771	179.53	0.94	8.4	-0.02	0.01	-1.03	63.59	9.8	-51.29	
1551801609031.819	179.53	0.94	8.4	-0.02	0.01	-1.03	63.7	10.11	-51.19	
1551801609043.867	179.53	0.93	8.41	-0.02	0.01	-1.03	63.78	10.36	-51.12	
1551801609055.915	179.53	0.93	8.41	-0.02	0.01	-1.03	63.57	10.28	-51.33	
1551801609067.963	179.53	0.93	8.42	-0.02	0.01	-1.03	63.39	10.21	-51.5	
1551801609080.011	179.53	0.93	8.43	-0.02	0.01	-1.03	63.25	10.3	-51.37	
1551801609092.059	179.53	0.93	8.43	-0.02	0.01	-1.03	63.14	10.37	-51.26	
1551801609104.107	179.53	0.93	8.44	-0.02	0.01	-1.03	63.2	10.43	-51.03	
1551801609116.155	179.53	0.93	8.45	-0.02	0.01	-1.03	63.24	10.47	-50.85	
1551801609128.203	179.53	0.93	8.46	-0.02	0.01	-1.03	63.13	10.37	-50.57	
1551801609140.251	179.53	0.93	8.46	-0.02	0.01	-1.03	63.05	10.28	-50.34	
1551801609152.299	179.53	0.93	8.46	-0.02	0.01	-1.03	62.98	10.07	-50.3	
1551801609164.347	179.53	0.93	8.47	-0.01	0.01	-1.03	62.92	9.9	-50.27	
1551801609176.395	179.53	0.93	8.46	-0.02	0.01	-1.03	63.02	9.77	-50.1	
1551801609188.443	179.54	0.93	8.46	-0.02	0.01	-1.03	63.1	9.66	-49.97	
1551801609200.491	179.54	0.93	8.46	-0.02	0.01	-1.03	63.3	9.86	-50.14	
1551801609212.539	179.54	0.93	8.46	-0.02	0.01	-1.03	63.47	10.02	-50.28	
1551801609224.587	179.53	0.93	8.46	-0.02	0.01	-1.04	63.46	10.15	-50.52	
1551801609236.635	179.53	0.93	8.46	-0.02	0.01	-1.03	63.45	10.25	-50.72	
1551801609248.683	179.53	0.93	8.47	-0.02	0.01	-1.03	63.3	10.04	-50.74	
1551801609260.731	179.53	0.93	8.47	-0.02	0.01	-1.03	63.18	9.88	-50.75	
1551801609272.779	179.53	0.93	8.46	-0.02	0.01	-1.03	63.23	9.61	-50.63	
1551801609284.827	179.53	0.93	8.45	-0.01	0.01	-1.04	63.26	9.39	-50.53	
1551801609296.875	179.53	0.93	8.44	-0.02	0.01	-1.03	63.15	9.5	-50.45	
1551801609308.923	179.53	0.93	8.44	-0.02	0.01	-1.03	63.06	9.59	-50.39	
1551801609320.971	179.53	0.93	8.43	-0.02	0.01	-1.03	63.27	9.52	-50.33	
1551801609333.019	179.53	0.93	8.42	-0.02	0.01	-1.03	63.44	9.46	-50.29	
1551801609345.067	179.53	0.93	8.41	-0.02	0.01	-1.03	63.72	9.42	-50.4	
1551801609357.115	179.53	0.93	8.4	-0.02	0.01	-1.03	63.95	9.38	-50.48	
1551801609369.163	179.53	0.93	8.39	-0.02	0.01	-1.03	63.84	9.49	-50.55	
1551801609381.211	179.54	0.93	8.39	-0.02	0.01	-1.03	63.75	9.58	-50.6	
1551801609393.259	179.54	0.93	8.38	-0.02	0.01	-1.03	63.54	9.51	-50.65	
1551801609405.307	179.54	0.93	8.37	-0.02	0.01	-1.03	63.37	9.46	-50.68	
1551801609417.355	179.53	0.93	8.37	-0.02	0.01	-1.03	63.24	9.7	-50.98	
1551801609429.403	179.53	0.93	8.37	-0.02	0.01	-1.03	63.13	9.89	-51.22	
1551801609441.451	179.54	0.93	8.37	-0.02	0.01	-1.03	63.47	9.76	-51.28	
1551801609453.499	179.54	0.93	8.36	-0.02	0.01	-1.03	63.75	9.65	-51.32	
1551801609465.547	179.54	0.94	8.36	-0.02	0.01	-1.03	63.82	9.85	-51.36	
1551801609477.595	179.54	0.93	8.36	-0.02	0.01	-1.03	63.88	10.01	-51.39	
1551801609489.643	179.54	0.93	8.37	-0.02	0.01	-1.03	63.5	10.0	-51.14	
1551801609501.691	179.54	0.93	8.37	-0.02	0.01	-1.03	63.2	9.99	-50.94	
1551801609513.739	179.54	0.93	8.37	-0.02	0.01	-1.03	63.53	10.12	-50.91	
1551801609525.787	179.54	0.94	8.38	-0.02	0.01	-1.03	63.79	10.23	-50.89	
1551801609537.835	179.54	0.94	8.38	-0.02	0.01	-1.04	63.71	10.03	-50.88	
1551801609549.883	179.54	0.94	8.38	-0.02	0.01	-1.03	63.65	9.87	-50.87	
1551801609561.931	179.54	0.94	8.38	-0.02	0.01	-1.03	63.61	9.88	-50.72	
1551801609573.979	179.54	0.94	8.38	-0.02	0.01	-1.03	63.57	9.89	-50.6	
1551801609586.027	179.54	0.94	8.38	-0.02	0.01	-1.03	63.68	9.76	-50.78	
1551801609598.075	179.54	0.94	8.37	-0.02	0.01	-1.03	63.77	9.66	-50.93	
1551801609610.123	179.54	0.94	8.38	-0.02	0.01	-1.04	63.55	10.0	-51.18	
1551801609622.171	179.54	0.94	8.38	-0.02	0.01	-1.03	63.38	10.27	-51.38	
1551801609634.219	179.54	0.94	8.39	-0.02	0.01	-1.03	63.25	10.2	-51.27	
1551801609646.267	179.54	0.94	8.39	-0.02	0.01	-1.03	63.14	10.15	-51.18	
1551801609658.315	179.54	0.94	8.39	-0.01	0.01	-1.03	63.19	9.83	-50.97	
1551801609670.363	179.54	0.94	8.39	-0.02	0.01	-1.03	63.24	9.57	-50.8	
1551801609682.411	179.54	0.94	8.38	-0.02	0.01	-1.03	63.13	9.64	-50.94	
1551801609694.459	179.54	0.94	8.38	-0.02	0.01	-1.03	63.04	9.7	-51.05	
1551801609706.507	179.54	0.94	8.38	-0.02	0.01	-1.03	63.26	9.89	-51.01	
1551801609718.555	179.54	0.94	8.39	-0.02	0.01	-1.03	63.43	10.04	-50.97	
1551801609730.603	179.54	0.94	8.39	-0.02	0.01	-1.03	63.43	10.02	-50.66	
1551801609742.651	179.54	0.94	8.39	-0.02	0.01	-1.03	63.43	10.01	-50.42	
1551801609754.699	179.54	0.94	8.39	-0.02	0.01	-1.03	63.71	9.85	-50.77	
1551801609766.747	179.54	0.94	8.38	-0.02	0.01	-1.03	63.93	9.73	-51.06	
1551801609778.795	179.54	0.94	8.37	-0.02	0.01	-1.03	63.97	9.49	-51.15	
1551801609790.843	179.54	0.94	8.36	-0.02	0.01	-1.03	64.0	9.29	-51.22	
1551801609802.891	179.54	0.94	8.36	-0.02	0.01	-1.03	64.03	9.42	-51.0	
1551801609814.939	179.54	0.94	8.35	-0.02	0.01	-1.03	64.05	9.53	-50.83	
1551801609826.987	179.54	0.94	8.35	-0.02	0.01	-1.03	63.78	9.75	-50.82	
1551801609839.035	179.54	0.94	8.35	-0.02	0.01	-1.03	63.56	9.93	-50.82	
1551801609851.083	179.54	0.94	8.35	-0.02	0.01	-1.03	63.53	9.79	-50.68	
1551801609863.131	179.54	0.94	8.34	-0.02	0.01	-1.03	63.51	9.68	-50.57	
1551801609875.179	179.54	0.94	8.34	-0.02	0.01	-1.03	63.63	9.87	-50.35	
1551801609887.227	179.54	0.94	8.35	-0.02	0.01	-1.03	63.73	10.03	-50.17	
1551801609899.275	179.54	0.94	8.35	-0.02	0.01	-1.03	63.81	10.15	-50.16	
1551801609911.323	179.54	0.94	8.36	-0.02	0.01	-1.03	63.87	10.25	-50.15	
1551801609923.371	179.54	0.94	8.37	-0.02	0.01	-1.03	63.78	10.76	-50.15	
1551801609935.419	179.54	0.94	8.39	-0.02	0.01	-1.03	63.71	11.16	-50.15	
1551801609947.467	179.54	0.94	8.42	-0.02	0.01	-1.03	63.65	11.2	-50.28	
1551801609959.515	179.54	0.94	8.44	-0.01	0.01	-1.03	63.6	11.24	-50.39	
1551801609971.563	179.54	0.94	8.46	-0.02	0.01	-1.03	63.56	10.98	-50.47	
1551801609983.611	179.54	0.94	8.47	-0.02	0.01	-1.03	63.53	10.77	-50.54	
1551801609995.659	179.54	0.94	8.49	-0.02	0.01	-1.03	63.22	10.89	-50.73	
1551801610007.707	179.54	0.94	8.51	-0.02	0.01	-1.03	62.98	10.98	-50.89	
1551801610019.755	179.54	0.94	8.52	-0.02	0.01	-1.03	63.06	10.78	-51.01	
1551801610031.803	179.54	0.94	8.53	-0.02	0.01	-1.03	63.13	10.61	-51.11	
1551801610043.851	179.54	0.94	8.54	-0.02	0.01	-1.04	63.19	10.48	-50.78	
1551801610055.899	179.54	0.94	8.55	-0.01	0.01	-1.03	63.23	10.37	-50.51	
1551801610067.947	179.54	0.94	8.55	-0.02	0.01	-1.03	63.13	10.0	-50.71	
1551801610079.995	179.54	0.94	8.54	-0.02	0.01	-1.03	63.04	9.7	-50.87	
1551801610092.043	179.54	0.94	8.53	-0.02	0.01	-1.03	63.12	9.75	-51.13	
1551801610104.091	179.54	0.94	8.53	-0.02	0.01	-1.03	63.18	9.79	-51.34	
1551801610116.139	179.54	0.94	8.53	-0.02	0.01	-1.03	63.22	9.96	-51.1	
1551801610128.187	179.54	0.94	8.53	-0.02	0.01	-1.03	63.26	10.1	-50.91	
1551801610140.235	179.54	0.94	8.53	-0.02	0.01	-1.03	63.43	10.21	-50.89	
1551801610152.283	179.54	0.94	8.54	-0.02	0.01	-1.03	63.57	10.3	-50.87	
1551801610164.331	179.54	0.94	8.54	-0.02	0.01	-1.03	63.68	10.37	-50.86	
1551801610176.379	179.54	0.94	8.55	-0.02	0.01	-1.03	63.77	10.43	-50.85	
1551801610188.427	179.54	0.94	8.55	-0.01	0.01	-1.03	63.56	10.47	-50.71	
1551801610200.475	179.54	0.93	8.56	-0.01	0.01	-1.03	63.39	10.51	-50.59	
1551801610212.523	179.54	0.94	8.57	-0.02	0.01	-1.03	63.53	10.39	-50.78	
1551801610224.571	179.54	0.93	8.57	-0.02	0.01	-1.03	63.65	10.3	-50.92	
1551801610236.619	179.53	0.93	8.57	-0.02	0.01	-1.03	63.6	10.37	-51.04	
1551801610248.667	179.53	0.94	8.57	-0.02	0.01	-1.03	63.57	10.43	-51.13	
1551801610260.715	179.53	0.94	8.58	-0.02	0.01	-1.03	63.68	10.19	-51.07	
1551801610272.763	179.54	0.94	8.58	-0.02	0.01	-1.03	63.77	10.0	-51.02	
1551801610284.811	179.54	0.94	8.57	-0.02	0.01	-1.03	63.7	9.56	-50.98	
1551801610296.859	179.54	0.94	8.55	-0.02	0.01	-1.03	63.64	9.21	-50.95	
1551801610308.907	179.54	0.94	8.54	-0.02	0.01	-1.03	63.74	9.22	-50.78	
1551801610320.955	179.54	0.94	8.52	-0.01	0.01	-1.03	63.81	9.22	-50.65	
1551801610333.003	179.54	0.94	8.5	-0.01	0.01	-1.03	63.45	9.22	-50.55	
1551801610345.051	179.53	0.93	8.49	-0.01	0.01	-1.03	63.16	9.22	-50.46	
1551801610357.099	179.53	0.93	8.47	-0.01	0.01	-1.03	63.07	9.23	-50.53	
1551801610369.147	179.53	0.93	8.46	-0.02	0.01	-1.03	62.99	9.23	-50.59	
1551801610381.195	179.53	0.94	8.45	-0.02	0.01	-1.03	63.36	9.51	-50.5	
1551801610393.243	179.54	0.94	8.45	-0.02	0.01	-1.03	63.66	9.74	-50.43	
1551801610405.291	179.54	0.94	8.45	-0.02	0.01	-1.03	63.75	10.21	-50.5	
1551801610417.339	179.54	0.94	8.47	-0.02	0.01	-1.03	63.83	10.58	-50.57	
1551801610429.387	179.54	0.94	8.47	-0.02	0.01	-1.03	63.74	10.31	-50.62	
1551801610441.435	179.54	0.94	8.47	-0.02	0.01	-1.03	63.68	10.09	-50.66	
1551801610453.483	179.54	0.94	8.47	-0.02	0.01	-1.03	63.91	10.06	-50.69	
1551801610465.531	179.54	0.94	8.47	-0.02	0.01	-1.03	64.09	10.04	-50.71	
1551801610477.579	179.54	0.94	8.48	-0.02	0.01	-1.03	63.96	10.16	-50.87	
1551801610489.627	179.54	0.94	8.48	-0.02	0.01	-1.03	63.85	10.26	-51.0	
1551801610501.675	179.54	0.94	8.48	-0.02	0.01	-1.03	63.76	10.48	-51.1	
1551801610513.723	179.54	0.94	8.49	-0.02	0.01	-1.03	63.69	10.66	-51.18	
1551801610525.771	179.53	0.94	8.5	-0.02	0.01	-1.03	63.49	10.37	-51.38	
1551801610537.819	179.53	0.94	8.5	-0.02	0.01	-1.03	63.33	10.14	-51.54	
1551801610549.867	179.53	0.94	8.5	-0.02	0.01	-1.03	63.35	10.1	-51.26	
1551801610561.915	179.53	0.94	8.5	-0.02	0.01	-1.03	63.36	10.07	-51.04	
1551801610573.963	179.53	0.94	8.5	-0.02	0.01	-1.03	63.66	10.05	-50.99	
1551801610586.011	179.53	0.94	8.5	-0.02	0.01	-1.03	63.89	10.02	-50.96	
1551801610598.059	179.53	0.94	8.5	-0.02	0.01	-1.03	63.94	10.29	-51.07	
1551801610610.107	179.53	0.95	8.51	-0.02	0.01	-1.03	63.98	10.51	-51.15	
1551801610622.155	179.54	0.94	8.51	-0.02	0.01	-1.03	64.15	10.39	-50.95	
1551801610634.203	179.53	0.94	8.51	-0.01	0.01	-1.03	64.29	10.3	-50.79	
1551801610646.251	179.53	0.94	8.52	-0.02	0.01	-1.03	64.11	10.37	-50.79	
1551801610658.299	179.53	0.94	8.52	-0.02	0.01	-1.03	63.97	10.43	-50.8	
1551801610670.347	179.54	0.94	8.53	-0.02	0.0	-1.04	64.0	10.19	-50.8	
1551801610682.395	179.54	0.94	8.53	-0.02	0.0	-1.03	64.03	10.0	-50.8	
1551801610694.443	179.54	0.94	8.53	-0.01	0.01	-1.03	63.9	10.41	-50.67	
1551801610706.491	179.54	0.94	8.54	-0.02	0.01	-1.03	63.81	10.74	-50.56	
1551801610718.539	179.53	0.94	8.55	-0.02	0.01	-1.03	63.73	10.58	-50.48	
1551801610730.587	179.53	0.95	8.55	-0.02	0.01	-1.03	63.66	10.46	-50.41	
1551801610742.635	179.54	0.95	8.56	-0.02	0.0	-1.03	63.61	10.5	-50.76	
1551801610754.683	179.54	0.95	8.57	-0.02	0.01	-1.03	63.57	10.53	-51.05	
1551801610766.731	179.53	0.94	8.57	-0.02	0.01	-1.03	63.54	10.55	-50.87	
1551801610778.779	179.53	0.94	8.58	-0.02	0.01	-1.03	63.52	10.57	-50.72	
1551801610790.827	179.53	0.94	8.59	-0.02	0.01	-1.03	63.49	10.59	-50.6	
1551801610802.875	179.53	0.95	8.6	-0.02	0.0	-1.03	63.48	10.6	-50.51	
1551801610814.923	179.54	0.95	8.61	-0.02	0.0	-1.03	63.32	10.47	-50.71	
1551801610826.971	179.54	0.94	8.61	-0.01	0.01	-1.03	63.2	10.36	-50.87	
1551801610839.019	179.54	0.94	8.62	-0.02	0.01	-1.03	63.1	10.28	-50.99	
1551801610851.067	179.54	0.94	8.62	-0.02	0.01	-1.03	63.02	10.21	-51.1	
1551801610863.115	179.53	0.95	8.61	-0.02	0.01	-1.03	63.38	9.87	-51.18	
1551801610875.163	179.53	0.94	8.6	-0.02	0.01	-1.03	63.67	9.6	-51.24	
1551801610887.211	179.52	0.95	8.59	-0.02	0.01	-1.03	63.62	9.81	-50.88	
1551801610899.259	179.52	0.94	8.58	-0.01	0.01	-1.03	63.58	9.98	-50.59	
1551801610911.307	179.52	0.94	8.58	-0.02	0.01	-1.03	63.69	9.97	-50.78	
1551801610923.355	179.52	0.94	8.58	-0.02	0.01	-1.03	63.78	9.97	-50.92	
1551801610935.403	179.53	0.94	8.57	-0.02	0.01	-1.03	63.7	9.96	-50.9	
1551801610947.451	179.53	0.94	8.57	-0.02	0.01	-1.03	63.65	9.96	-50.88	
1551801610959.499	179.54	0.95	8.57	-0.02	0.0	-1.03	63.6	9.81	-50.73	
1551801610971.547	179.54	0.95	8.57	-0.02	0.01	-1.03	63.56	9.7	-50.61	
1551801610983.595	179.54	0.95	8.56	-0.02	0.01	-1.03	63.53	9.89	-50.38	
1551801610995.643	179.54	0.95	8.56	-0.02	0.01	-1.03	63.51	10.04	-50.19	
1551801611007.691	179.54	0.95	8.56	-0.02	0.01	-1.03	63.06	10.02	-50.32	
1551801611019.739	179.54	0.95	8.57	-0.02	0.01	-1.04	62.7	10.01	-50.42	
1551801611031.787	179.54	0.95	8.57	-0.01	0.01	-1.03	62.85	10.13	-50.5	
1551801611043.835	179.54	0.94	8.58	-0.01	0.01	-1.03	62.96	10.24	-50.56	
1551801611055.883	179.54	0.94	8.58	-0.01	0.01	-1.04	63.19	10.32	-50.61	
1551801611067.931	179.53	0.94	8.58	-0.01	0.01	-1.03	63.38	10.39	-50.65	
1551801611079.979	179.53	0.94	8.58	-0.02	0.01	-1.03	63.24	10.3	-50.96	
1551801611092.027	179.52	0.94	8.58	-0.01	0.01	-1.03	63.13	10.23	-51.21	
1551801611104.075	179.52	0.93	8.58	-0.02	0.01	-1.03	63.33	10.17	-51.13	
1551801611116.123	179.52	0.94	8.58	-0.02	0.01	-1.04	63.49	10.12	-51.07	
1551801611128.171	179.52	0.94	8.57	-0.02	0.01	-1.03	63.19	9.66	-51.15	
1551801611140.219	179.53	0.94	8.56	-0.02	0.0	-1.03	62.95	9.29	-51.22	
1551801611152.267	179.53	0.94	8.56	-0.02	0.0	-1.03	62.9	9.42	-51.14	
1551801611164.315	179.53	0.94	8.54	-0.02	0.01	-1.03	62.86	9.53	-51.08	
1551801611176.363	179.52	0.94	8.53	-0.02	0.01	-1.03	62.69	9.61	-51.03	
1551801611188.411	179.53	0.95	8.53	-0.02	-0.0	-1.03	62.55	9.68	-50.98	
1551801611200.459	179.55	0.95	8.55	-0.02	-0.01	-1.03	62.86	10.16	-50.81	
1551801611212.507	179.56	0.95	8.57	-0.02	-0.0	-1.03	63.11	10.54	-50.68	
1551801611224.555	179.57	0.94	8.58	-0.01	0.0	-1.03	63.17	10.28	-50.84	
1551801611236.603	179.56	0.93	8.58	-0.01	0.02	-1.03	63.22	10.07	-50.97	
1551801611248.651	179.55	0.93	8.57	-0.02	0.02	-1.03	63.26	10.04	-50.81	
1551801611260.699	179.53	0.93	8.56	-0.02	0.03	-1.03	63.29	10.02	-50.67	
1551801611272.747	179.51	0.93	8.54	-0.02	0.02	-1.03	63.31	9.72	-50.84	
1551801611284.795	179.51	0.93	8.53	-0.01	0.01	-1.03	63.33	9.48	-50.97	
1551801611296.843	179.51	0.93	8.52	-0.02	0.01	-1.04	63.21	9.43	-50.8	
1551801611308.891	179.51	0.93	8.51	-0.02	0.0	-1.03	63.11	9.39	-50.67	
1551801611320.939	179.52	0.93	8.51	-0.02	0.0	-1.03	63.17	9.64	-50.7	
1551801611332.987	179.52	0.94	8.51	-0.02	0.0	-1.03	63.22	9.85	-50.72	
1551801611345.035	179.53	0.94	8.51	-0.02	0.01	-1.03	63.4	9.87	-50.33	
1551801611357.083	179.52	0.93	8.5	-0.01	0.01	-1.03	63.54	9.88	-50.01	
1551801611369.131	179.52	0.93	8.5	-0.02	0.01	-1.03	63.37	10.03	-50.18	
1551801611381.179	179.52	0.93	8.5	-0.02	0.01	-1.03	63.24	10.16	-50.3	
1551801611393.227	179.52	0.94	8.51	-0.02	0.0	-1.03	63.13	10.12	-50.27	
1551801611405.275	179.53	0.94	8.52	-0.02	-0.0	-1.03	63.05	10.08	-50.24	
1551801611417.323	179.54	0.94	8.53	-0.02	-0.0	-1.03	63.26	10.19	-50.49	
1551801611429.371	179.55	0.93	8.54	-0.01	0.0	-1.03	63.43	10.29	-50.7	
1551801611441.419	179.54	0.93	8.53	-0.02	0.01	-1.03	63.71	9.93	-50.86	
1551801611453.467	179.53	0.93	8.52	-0.02	0.02	-1.03	63.94	9.65	-50.99	
1551801611465.515	179.52	0.93	8.5	-0.02	0.02	-1.03	63.83	9.57	-50.68	
1551801611477.563	179.51	0.93	8.49	-0.02	0.02	-1.03	63.75	9.5	-50.43	
1551801611489.611	179.51	0.92	8.47	-0.01	0.01	-1.03	63.54	9.59	-50.51	
1551801611501.659	179.51	0.92	8.47	-0.02	0.01	-1.03	63.37	9.66	-50.57	
1551801611513.707	179.51	0.92	8.47	-0.02	0.0	-1.04	63.24	9.72	-50.48	
1551801611525.755	179.52	0.93	8.47	-0.02	-0.0	-1.03	63.13	9.76	-50.41	
1551801611537.803	179.53	0.93	8.48	-0.02	0.0	-1.03	63.04	10.22	-50.49	
1551801611549.851	179.54	0.94	8.5	-0.02	0.0	-1.03	62.98	10.59	-50.56	
1551801611561.899	179.54	0.94	8.51	-0.02	0.01	-1.03	63.06	10.32	-50.61	
1551801611573.947	179.54	0.94	8.51	-0.02	0.01	-1.03	63.13	10.1	-50.65	
1551801611585.995	179.54	0.94	8.52	-0.02	0.01	-1.03	63.19	10.36	-50.55	
1551801611598.043	179.54	0.93	8.52	-0.02	0.01	-1.03	63.23	10.56	-50.46	
1551801611610.091	179.54	0.93	8.53	-0.02	0.01	-1.03	63.27	10.72	-50.26	
1551801611622.139	179.54	0.93	8.55	-0.02	0.01	-1.03	63.3	10.85	-50.1	
1551801611634.187	179.53	0.93	8.56	-0.01	0.01	-1.03	63.18	10.81	-50.38	
1551801611646.235	179.53	0.93	8.57	-0.02	0.01	-1.03	63.08	10.78	-50.6	
1551801611658.283	179.53	0.93	8.59	-0.02	0.01	-1.03	63.15	10.89	-50.51	
1551801611670.331	179.53	0.94	8.6	-0.02	0.01	-1.03	63.2	10.99	-50.43	
1551801611682.379	179.53	0.93	8.62	-0.02	0.01	-1.03	63.24	10.92	-50.37	
1551801611694.427	179.53	0.94	8.63	-0.02	0.01	-1.03	63.28	10.87	-50.32	
1551801611706.475	179.54	0.94	8.64	-0.02	0.0	-1.03	63.59	10.54	-50.29	
1551801611718.523	179.54	0.94	8.64	-0.02	0.0	-1.03	63.84	10.28	-50.25	
1551801611730.571	179.55	0.94	8.65	-0.02	0.01	-1.03	63.61	10.21	-50.23	
1551801611742.619	179.55	0.94	8.65	-0.01	0.01	-1.03	63.43	10.16	-50.21	
1551801611754.667	179.54	0.94	8.64	-0.02	0.01	-1.03	63.57	9.97	-50.33	
1551801611766.715	179.54	0.94	8.63	-0.01	0.01	-1.03	63.68	9.82	-50.43	
1551801611778.763	179.54	0.94	8.62	-0.02	0.01	-1.03	63.77	9.71	-50.23	
1551801611790.811	179.54	0.93	8.61	-0.02	0.01	-1.03	63.84	9.61	-50.07	
1551801611802.859	179.53	0.93	8.6	-0.02	0.01	-1.03	63.9	9.96	-50.22	
1551801611814.907	179.53	0.93	8.6	-0.02	0.01	-1.03	63.94	10.24	-50.34	
1551801611826.955	179.53	0.93	8.61	-0.02	0.01	-1.03	63.84	10.32	-50.3	
1551801611839.003	179.53	0.93	8.61	-0.02	0.01	-1.03	63.75	10.39	-50.27	
1551801611851.051	179.53	0.93	8.62	-0.02	0.01	-1.03	63.68	10.58	-50.38	
1551801611863.099	179.54	0.94	8.63	-0.02	0.01	-1.03	63.63	10.74	-50.46	
1551801611875.147	179.54	0.94	8.64	-0.02	0.01	-1.03	63.87	10.72	-50.53	
1551801611887.195	179.54	0.93	8.65	-0.01	0.01	-1.03	64.06	10.71	-50.59	
1551801611899.243	179.54	0.93	8.66	-0.02	0.01	-1.03	63.93	10.84	-50.64	
1551801611911.291	179.54	0.93	8.67	-0.02	0.01	-1.03	63.83	10.94	-50.67	
1551801611923.339	179.53	0.93	8.68	-0.02	0.01	-1.03	63.6	11.03	-50.7	
1551801611935.387	179.53	0.93	8.7	-0.02	0.01	-1.03	63.42	11.09	-50.72	
1551801611947.435	179.53	0.93	8.71	-0.02	0.01	-1.03	63.28	11.15	-50.61	
1551801611959.483	179.53	0.93	8.73	-0.02	0.01	-1.03	63.16	11.19	-50.51	
1551801611971.531	179.53	0.93	8.75	-0.02	0.01	-1.03	63.07	11.23	-50.57	
1551801611983.579	179.53	0.93	8.77	-0.02	0.01	-1.03	63.0	11.25	-50.62	
1551801611995.627	179.53	0.93	8.78	-0.01	0.0	-1.03	62.94	10.99	-50.66	
1551801612007.675	179.54	0.93	8.79	-0.02	0.0	-1.03	62.89	10.78	-50.69	
1551801612019.723	179.54	0.93	8.8	-0.02	0.01	-1.03	63.28	10.76	-50.58	
1551801612031.771	179.54	0.93	8.81	-0.02	0.01	-1.03	63.59	10.73	-50.49	
1551801612043.819	179.54	0.93	8.82	-0.02	0.01	-1.03	63.7	10.72	-50.69	
1551801612055.867	179.54	0.93	8.82	-0.01	0.01	-1.03	63.78	10.71	-50.85	
1551801612067.915	179.54	0.93	8.82	-0.02	0.01	-1.03	63.71	10.69	-50.98	
1551801612079.963	179.54	0.93	8.83	-0.01	0.01	-1.03	63.65	10.69	-51.09	
1551801612092.011	179.53	0.92	8.83	-0.01	0.01	-1.03	63.17	10.68	-51.03	
1551801612104.059	179.53	0.92	8.84	-0.01	0.01	-1.03	62.79	10.67	-50.99	
1551801612116.107	179.53	0.92	8.84	-0.01	0.01	-1.03	62.92	10.53	-50.68	
1551801612128.155	179.53	0.92	8.84	-0.02	0.01	-1.03	63.02	10.41	-50.43	
1551801612140.203	179.53	0.92	8.84	-0.02	0.01	-1.04	62.95	10.6	-50.37	
1551801612152.251	179.53	0.92	8.85	-0.02	0.01	-1.03	62.9	10.75	-50.32	
1551801612164.299	179.53	0.92	8.86	-0.02	0.01	-1.03	62.72	10.59	-50.42	
1551801612176.347	179.53	0.92	8.86	-0.02	0.01	-1.03	62.57	10.46	-50.5	
1551801612188.395	179.54	0.92	8.87	-0.02	0.01	-1.03	62.6	10.5	-50.29	
1551801612200.443	179.54	0.92	8.87	-0.02	0.01	-1.03	62.62	10.53	-50.12	
1551801612212.491	179.54	0.92	8.87	-0.02	0.01	-1.03	62.92	10.13	-50.26	
1551801612224.539	179.53	0.92	8.86	-0.01	0.01	-1.03	63.16	9.81	-50.37	
1551801612236.587	179.53	0.92	8.84	-0.01	0.01	-1.03	63.5	9.69	-50.74	
1551801612248.635	179.53	0.92	8.83	-0.02	0.01	-1.03	63.76	9.6	-51.03	
1551801612260.683	179.53	0.92	8.81	-0.02	0.01	-1.03	63.55	9.67	-50.85	
1551801612272.731	179.53	0.92	8.8	-0.02	0.01	-1.04	63.38	9.72	-50.7	
1551801612284.779	179.53	0.92	8.8	-0.01	0.01	-1.03	63.53	10.19	-50.73	
1551801612296.827	179.53	0.92	8.8	-0.02	0.01	-1.03	63.65	10.57	-50.74	
1551801612308.875	179.53	0.92	8.8	-0.02	0.01	-1.04	63.74	10.59	-50.76	
1551801612320.923	179.53	0.92	8.81	-0.02	0.01	-1.03	63.82	10.6	-50.77	
1551801612332.971	179.53	0.92	8.81	-0.02	0.01	-1.03	63.74	10.33	-51.05	
1551801612345.019	179.53	0.92	8.8	-0.01	0.01	-1.03	63.67	10.11	-51.28	
1551801612357.067	179.53	0.92	8.79	-0.02	0.01	-1.03	63.62	9.79	-51.19	
1551801612369.115	179.53	0.92	8.78	-0.02	0.01	-1.03	63.58	9.54	-51.11	
1551801612381.163	179.53	0.92	8.77	-0.02	0.01	-1.03	63.55	9.76	-50.92	
1551801612393.211	179.53	0.92	8.76	-0.02	0.01	-1.03	63.52	9.94	-50.76	
1551801612405.259	179.53	0.92	8.75	-0.02	0.01	-1.03	63.5	9.94	-50.63	
1551801612417.307	179.53	0.92	8.75	-0.01	0.01	-1.03	63.48	9.94	-50.53	
1551801612429.355	179.53	0.91	8.74	-0.02	0.01	-1.03	63.47	9.94	-50.59	
1551801612441.403	179.53	0.92	8.73	-0.02	0.01	-1.03	63.46	9.94	-50.64	
1551801612453.451	179.53	0.92	8.73	-0.02	0.01	-1.03	63.59	10.22	-50.81	
1551801612465.499	179.53	0.92	8.74	-0.02	0.01	-1.03	63.7	10.45	-50.95	
1551801612477.547	179.53	0.92	8.74	-0.02	0.01	-1.03	63.64	10.35	-50.92	
1551801612489.595	179.53	0.92	8.74	-0.02	0.01	-1.03	63.59	10.27	-50.9	
1551801612501.643	179.54	0.92	8.74	-0.02	0.01	-1.03	63.7	10.2	-50.61	
1551801612513.691	179.54	0.92	8.74	-0.01	0.01	-1.03	63.79	10.15	-50.38	
1551801612525.739	179.53	0.92	8.73	-0.02	0.01	-1.03	63.71	10.25	-50.46	
1551801612537.787	179.53	0.92	8.73	-0.01	0.01	-1.03	63.65	10.33	-50.54	
1551801612549.835	179.53	0.92	8.73	-0.02	0.01	-1.03	64.03	10.11	-50.45	
1551801612561.883	179.53	0.92	8.71	-0.02	0.01	-1.03	64.33	9.94	-50.39	
1551801612573.931	179.53	0.91	8.71	-0.01	0.01	-1.03	64.29	10.22	-50.34	
1551801612585.979	179.53	0.91	8.7	-0.02	0.01	-1.03	64.26	10.02	-50.3	
1551801612598.027	179.53	0.91	8.7	-0.02	0.01	-1.03	64.23	9.87	-50.26	
1551801612610.075	179.53	0.91	8.69	-0.02	0.01	-1.03	63.93	10.16	-50.24	
1551801612622.123	179.53	0.92	8.7	-0.02	0.01	-1.03	63.68	10.4	-50.22	
1551801612634.171	179.54	0.92	8.71	-0.02	0.01	-1.03	63.48	10.6	-50.2	
1551801612646.219	179.54	0.92	8.71	-0.02	0.01	-1.03	63.47	10.47	-50.32	
1551801612658.267	179.54	0.92	8.71	-0.02	0.01	-1.03	63.46	10.36	-50.42	
1551801612670.315	179.54	0.92	8.72	-0.02	0.01	-1.03	63.45	10.56	-50.5	
1551801612682.363	179.54	0.92	8.73	-0.01	0.01	-1.03	63.44	10.72	-50.56	
1551801612694.411	179.53	0.92	8.73	-0.02	0.01	-1.03	63.29	10.85	-50.48	
1551801612706.459	179.53	0.92	8.75	-0.02	0.01	-1.03	63.17	10.95	-50.41	
1551801612718.507	179.53	0.92	8.76	-0.02	0.01	-1.03	62.79	10.89	-50.49	
1551801612730.555	179.53	0.92	8.77	-0.02	0.01	-1.03	62.49	10.84	-50.56	
1551801612742.603	179.53	0.92	8.78	-0.02	0.01	-1.03	62.39	10.95	-50.47	
1551801612754.651	179.53	0.92	8.8	-0.02	0.01	-1.03	62.31	11.03	-50.4	
1551801612766.699	179.53	0.92	8.81	-0.02	0.01	-1.03	62.39	10.81	-50.76	
1551801612778.747	179.53	0.92	8.81	-0.02	0.01	-1.03	62.45	10.64	-51.05	
1551801612790.795	179.53	0.92	8.82	-0.02	0.01	-1.03	62.93	10.5	-51.14	
1551801612802.843	179.53	0.92	8.82	-0.02	0.01	-1.03	63.31	10.39	-51.21	
1551801612814.891	179.53	0.92	8.82	-0.02	0.01	-1.03	63.33	10.3	-51.27	
1551801612826.939	179.53	0.92	8.82	-0.02	0.01	-1.03	63.35	10.23	-51.32	
1551801612838.987	179.53	0.93	8.81	-0.02	0.01	-1.03	63.36	10.17	-51.22	
1551801612851.035	179.54	0.93	8.81	-0.02	0.01	-1.03	63.37	10.12	-51.14	
1551801612863.083	179.53	0.93	8.81	-0.02	0.01	-1.03	63.38	10.23	-50.94	
1551801612875.131	179.53	0.93	8.8	-0.02	0.01	-1.03	63.39	10.31	-50.77	
1551801612887.179	179.53	0.93	8.81	-0.02	0.01	-1.03	63.25	10.38	-50.92	
1551801612899.227	179.53	0.93	8.81	-0.02	0.01	-1.03	63.14	10.44	-51.04	
1551801612911.275	179.53	0.93	8.81	-0.02	0.01	-1.03	63.34	10.34	-50.99	
1551801612923.323	179.53	0.93	8.8	-0.02	0.01	-1.03	63.49	10.26	-50.96	
1551801612935.371	179.53	0.93	8.8	-0.01	0.01	-1.03	63.48	10.05	-50.93	
1551801612947.419	179.53	0.93	8.79	-0.02	0.01	-1.03	63.46	9.89	-50.91	
1551801612959.467	179.53	0.92	8.79	-0.02	0.01	-1.03	63.45	10.04	-51.16	
1551801612971.515	179.53	0.92	8.79	-0.02	0.01	-1.03	63.45	10.16	-51.37	
1551801612983.563	179.53	0.92	8.78	-0.02	0.01	-1.03	63.44	10.12	-51.4	
1551801612995.611	179.53	0.92	8.78	-0.02	0.01	-1.03	63.43	10.08	-51.42	
1551801613007.659	179.53	0.92	8.77	-0.01	0.01	-1.03	63.43	10.06	-51.3	
1551801613019.707	179.53	0.92	8.76	-0.01	0.01	-1.04	63.43	10.03	-51.2	
1551801613031.755	179.52	0.92	8.76	-0.02	0.01	-1.03	63.42	10.01	-50.99	
1551801613043.803	179.52	0.92	8.75	-0.02	0.01	-1.03	63.42	10.0	-50.82	
1551801613055.851	179.52	0.92	8.75	-0.02	0.01	-1.03	63.28	9.85	-51.09	
1551801613067.899	179.52	0.92	8.74	-0.02	0.01	-1.03	63.16	9.72	-51.31	
1551801613079.947	179.53	0.92	8.73	-0.02	0.01	-1.03	63.35	9.63	-51.35	
1551801613091.995	179.53	0.92	8.71	-0.02	0.01	-1.03	63.51	9.55	-51.38	
1551801613104.043	179.53	0.92	8.7	-0.02	0.01	-1.03	63.63	9.77	-51.27	
1551801613116.091	179.53	0.92	8.7	-0.02	0.01	-1.03	63.73	9.94	-51.18	
1551801613128.139	179.53	0.92	8.69	-0.02	0.01	-1.03	63.67	9.94	-51.24	
1551801613140.187	179.53	0.92	8.68	-0.02	0.01	-1.03	63.62	9.94	-51.3	
1551801613152.235	179.53	0.92	8.68	-0.02	0.01	-1.03	63.58	9.94	-51.34	
1551801613164.283	179.53	0.92	8.68	-0.02	0.01	-1.03	63.54	9.94	-51.37	
1551801613176.331	179.53	0.92	8.67	-0.02	0.01	-1.03	63.37	10.09	-51.4	
1551801613188.379	179.53	0.92	8.68	-0.02	0.01	-1.03	63.24	10.2	-51.42	
1551801613200.427	179.53	0.92	8.67	-0.02	0.01	-1.03	63.27	10.15	-51.44	
1551801613212.475	179.53	0.92	8.67	-0.02	0.01	-1.03	63.3	10.11	-51.45	
1551801613224.523	179.53	0.92	8.67	-0.02	0.01	-1.03	63.32	10.22	-51.46	
1551801613236.571	179.52	0.93	8.67	-0.02	0.01	-1.03	63.34	10.3	-51.47	
1551801613248.619	179.53	0.93	8.67	-0.02	0.01	-1.03	63.21	10.09	-50.93	
1551801613260.667	179.53	0.93	8.66	-0.02	0.01	-1.03	63.11	9.92	-50.49	
1551801613272.715	179.53	0.93	8.66	-0.02	0.01	-1.03	63.31	9.78	-50.56	
1551801613284.763	179.53	0.93	8.65	-0.02	0.01	-1.03	63.48	9.67	-50.61	
1551801613296.811	179.53	0.93	8.64	-0.02	0.01	-1.03	63.46	9.72	-50.51	
1551801613308.859	179.53	0.93	8.63	-0.02	0.01	-1.03	63.45	9.77	-50.44	
1551801613320.907	179.53	0.93	8.63	-0.02	0.01	-1.03	63.87	9.95	-50.65	
1551801613332.955	179.52	0.93	8.62	-0.02	0.01	-1.03	64.21	10.09	-50.82	
1551801613345.003	179.52	0.93	8.62	-0.01	0.01	-1.03	63.91	10.2	-50.82	
1551801613357.051	179.52	0.92	8.62	-0.02	0.01	-1.03	63.67	10.29	-50.82	
1551801613369.099	179.52	0.93	8.63	-0.02	0.01	-1.03	63.76	10.36	-50.82	
1551801613381.147	179.52	0.92	8.63	-0.02	0.01	-1.03	63.83	10.42	-50.82	
1551801613393.195	179.52	0.93	8.63	-0.02	0.01	-1.03	63.75	10.04	-50.96	
1551801613405.243	179.53	0.93	8.62	-0.02	0.01	-1.03	63.68	9.74	-51.07	
1551801613417.291	179.52	0.93	8.62	-0.02	0.01	-1.03	63.48	9.92	-51.02	
1551801613429.339	179.52	0.93	8.61	-0.02	0.01	-1.03	63.33	10.07	-50.98	
1551801613441.387	179.52	0.93	8.61	-0.02	0.01	-1.03	63.06	10.18	-50.67	
1551801613453.435	179.52	0.93	8.62	-0.02	0.01	-1.03	62.84	10.28	-50.42	
1551801613465.483	179.52	0.93	8.62	-0.02	0.01	-1.03	62.96	10.07	-50.64	
1551801613477.531	179.52	0.93	8.61	-0.02	0.01	-1.03	63.05	9.9	-50.81	
1551801613489.579	179.52	0.93	8.61	-0.02	0.01	-1.03	63.12	10.05	-50.95	
1551801613501.627	179.52	0.93	8.62	-0.02	0.01	-1.03	63.18	10.17	-51.06	
1551801613513.675	179.52	0.93	8.61	-0.01	0.01	-1.03	63.08	9.98	-50.88	
1551801613525.723	179.52	0.92	8.61	-0.01	0.01	-1.03	63.01	9.83	-50.73	
1551801613537.771	179.52	0.92	8.61	-0.01	0.01	-1.03	63.09	10.0	-50.88	
1551801613549.819	179.52	0.92	8.61	-0.02	0.01	-1.03	63.15	10.13	-51.01	
1551801613561.867	179.53	0.92	8.61	-0.02	0.01	-1.03	63.35	10.52	-50.97	
1551801613573.915	179.53	0.92	8.63	-0.02	0.01	-1.04	63.5	10.83	-50.94	
1551801613585.963	179.53	0.92	8.64	-0.02	0.01	-1.03	63.63	10.79	-50.64	
1551801613598.011	179.53	0.92	8.65	-0.02	0.01	-1.03	63.73	10.76	-50.4	
1551801613610.059	179.53	0.91	8.66	-0.01	0.01	-1.03	63.81	10.74	-50.48	
1551801613622.107	179.53	0.92	8.66	-0.02	0.01	-1.03	63.87	10.72	-50.55	
1551801613634.155	179.52	0.92	8.67	-0.02	0.01	-1.03	63.49	10.57	-50.33	
1551801613646.203	179.52	0.92	8.67	-0.02	0.01	-1.03	63.19	10.44	-50.15	
1551801613658.251	179.53	0.92	8.68	-0.02	0.01	-1.03	63.38	10.48	-50.29	
1551801613670.299	179.53	0.92	8.69	-0.02	0.01	-1.03	63.53	10.52	-50.39	
1551801613682.347	179.53	0.92	8.69	-0.02	0.01	-1.03	63.51	10.55	-50.48	
1551801613694.395	179.53	0.92	8.7	-0.02	0.01	-1.03	63.49	10.57	-50.54	
1551801613706.443	179.53	0.92	8.71	-0.02	0.01	-1.03	63.47	10.58	-50.6	
1551801613718.491	179.53	0.92	8.71	-0.02	0.01	-1.03	63.46	10.6	-50.64	
1551801613730.539	179.53	0.92	8.71	-0.02	0.01	-1.03	63.45	10.47	-50.68	
1551801613742.587	179.52	0.92	8.71	-0.02	0.01	-1.03	63.44	10.36	-50.71	
1551801613754.635	179.52	0.92	8.71	-0.02	0.01	-1.03	63.44	10.28	-50.87	
1551801613766.683	179.53	0.92	8.72	-0.02	0.01	-1.03	63.43	10.21	-50.99	
1551801613778.731	179.53	0.92	8.72	-0.02	0.01	-1.03	63.14	10.44	-50.82	
1551801613790.779	179.53	0.92	8.73	-0.02	0.01	-1.03	62.91	10.63	-50.68	
1551801613802.827	179.53	0.92	8.73	-0.02	0.01	-1.03	63.01	10.2	-50.71	
1551801613814.875	179.53	0.92	8.72	-0.02	0.01	-1.03	63.09	9.87	-50.73	
1551801613826.923	179.52	0.92	8.72	-0.02	0.01	-1.03	63.3	10.17	-50.75	
1551801613838.971	179.53	0.92	8.72	-0.01	0.01	-1.03	63.46	10.41	-50.76	
1551801613851.019	179.53	0.92	8.73	-0.02	0.01	-1.04	63.45	10.6	-50.91	
1551801613863.067	179.53	0.92	8.74	-0.02	0.01	-1.03	63.45	10.75	-51.03	
1551801613875.115	179.53	0.92	8.74	-0.02	0.01	-1.03	63.72	10.59	-51.12	
1551801613887.163	179.53	0.92	8.74	-0.02	0.01	-1.03	63.95	10.46	-51.2	
1551801613899.211	179.53	0.92	8.75	-0.02	0.01	-1.03	63.98	10.5	-50.99	
1551801613911.259	179.53	0.92	8.75	-0.02	0.01	-1.03	64.01	10.53	-50.81	
1551801613923.307	179.53	0.92	8.75	-0.02	0.01	-1.03	63.89	10.41	-50.54	
1551801613935.355	179.53	0.92	8.75	-0.02	0.01	-1.03	63.8	10.32	-50.32	
1551801613947.403	179.53	0.91	8.75	-0.02	0.01	-1.03	63.72	10.1	-50.56	
1551801613959.451	179.53	0.91	8.74	-0.02	0.01	-1.03	63.66	9.93	-50.75	
1551801613971.499	179.53	0.92	8.73	-0.02	0.01	-1.03	63.47	9.79	-50.62	
1551801613983.547	179.53	0.92	8.72	-0.02	0.01	-1.03	63.31	9.68	-50.53	
1551801613995.595	179.53	0.92	8.71	-0.02	0.01	-1.03	63.48	9.73	-50.45	
1551801614007.643	179.53	0.92	8.7	-0.02	0.01	-1.03	63.61	9.77	-50.38	
1551801614019.691	179.53	0.91	8.69	-0.02	0.01	-1.03	63.42	9.66	-50.47	
1551801614031.739	179.53	0.91	8.68	-0.02	0.01	-1.03	63.28	9.58	-50.54	
1551801614043.787	179.54	0.92	8.67	-0.02	0.01	-1.03	63.59	9.65	-50.87	
1551801614055.835	179.53	0.92	8.66	-0.02	0.01	-1.03	63.84	9.71	-51.13	
1551801614067.883	179.53	0.92	8.65	-0.02	0.01	-1.03	64.04	9.9	-50.8	
1551801614079.931	179.53	0.91	8.65	-0.01	0.01	-1.03	64.2	10.05	-50.53	
1551801614091.979	179.53	0.92	8.65	-0.02	0.01	-1.03	63.9	10.31	-50.58	
1551801614104.027	179.53	0.92	8.66	-0.02	0.01	-1.03	63.66	10.52	-50.63	
1551801614116.075	179.53	0.92	8.66	-0.02	0.01	-1.03	63.61	10.55	-50.53	
1551801614128.123	179.53	0.92	8.67	-0.02	0.01	-1.03	63.57	10.57	-50.45	
1551801614140.171	179.53	0.92	8.67	-0.02	0.01	-1.03	63.54	10.59	-50.66	
1551801614152.219	179.53	0.92	8.68	-0.02	0.01	-1.03	63.51	10.6	-50.83	
1551801614164.267	179.54	0.92	8.69	-0.01	0.01	-1.03	63.35	10.33	-50.83	
1551801614176.315	179.54	0.92	8.68	-0.02	0.01	-1.03	63.22	10.11	-50.83	
1551801614188.363	179.54	0.92	8.68	-0.02	0.01	-1.03	63.26	10.22	-50.82	
1551801614200.411	179.54	0.92	8.69	-0.02	0.01	-1.03	63.29	10.3	-50.82	
1551801614212.459	179.54	0.92	8.69	-0.02	0.01	-1.03	63.31	10.37	-50.82	
1551801614224.507	179.54	0.92	8.69	-0.02	0.01	-1.03	63.33	10.43	-50.82	
1551801614236.555	179.54	0.92	8.69	-0.02	0.01	-1.03	63.49	10.33	-50.82	
1551801614248.603	179.54	0.92	8.69	-0.02	0.01	-1.03	63.62	10.25	-50.82	
1551801614260.651	179.53	0.92	8.69	-0.02	0.01	-1.03	63.58	10.48	-50.68	
1551801614272.699	179.53	0.92	8.7	-0.02	0.01	-1.03	63.54	10.65	-50.57	
1551801614284.747	179.53	0.92	8.71	-0.02	0.01	-1.03	63.52	10.65	-50.48	
1551801614296.795	179.53	0.92	8.71	-0.02	0.01	-1.03	63.5	10.65	-50.41	
1551801614308.843	179.53	0.92	8.72	-0.02	0.01	-1.03	63.2	10.79	-50.49	
1551801614320.891	179.53	0.92	8.74	-0.02	0.01	-1.03	62.95	10.91	-50.56	
1551801614332.939	179.53	0.92	8.74	-0.02	0.01	-1.03	63.19	10.72	-50.75	
1551801614344.987	179.53	0.93	8.75	-0.02	0.01	-1.03	63.38	10.56	-50.9	
1551801614357.035	179.53	0.93	8.75	-0.02	0.01	-1.03	63.53	10.58	-50.88	
1551801614369.083	179.53	0.93	8.76	-0.02	0.01	-1.03	63.65	10.59	-50.87	
1551801614381.131	179.53	0.93	8.76	-0.02	0.01	-1.03	63.6	10.46	-50.86	
1551801614393.179	179.53	0.93	8.76	-0.02	0.01	-1.03	63.56	10.36	-50.85	
1551801614405.227	179.53	0.93	8.76	-0.02	0.01	-1.03	63.39	10.28	-50.71	
1551801614417.275	179.54	0.93	8.76	-0.02	0.01	-1.04	63.25	10.21	-50.59	
1551801614429.323	179.53	0.93	8.75	-0.02	0.01	-1.04	63.43	10.16	-50.5	
1551801614441.371	179.53	0.93	8.75	-0.02	0.01	-1.03	63.57	10.11	-50.43	
1551801614453.419	179.53	0.93	8.75	-0.02	0.01	-1.03	63.25	10.08	-50.5	
1551801614465.467	179.53	0.93	8.75	-0.02	0.01	-1.03	63.0	10.05	-50.57	
1551801614477.515	179.54	0.93	8.75	-0.02	0.01	-1.03	63.37	10.31	-50.75	
1551801614489.563	179.53	0.93	8.75	-0.02	0.01	-1.03	63.66	10.52	-50.9	
1551801614501.611	179.54	0.93	8.76	-0.02	0.01	-1.03	63.47	10.69	-50.75	
1551801614513.659	179.53	0.93	8.76	-0.02	0.01	-1.03	63.31	10.83	-50.63	
1551801614525.707	179.53	0.93	8.77	-0.02	0.01	-1.03	63.48	10.51	-50.53	
1551801614537.755	179.53	0.93	8.76	-0.02	0.01	-1.04	63.61	10.25	-50.45	
1551801614549.803	179.53	0.93	8.76	-0.02	0.01	-1.04	63.57	10.19	-50.8	
1551801614561.851	179.53	0.93	8.76	-0.02	0.01	-1.03	63.54	10.14	-51.07	
1551801614573.899	179.53	0.93	8.75	-0.02	0.01	-1.03	63.51	10.1	-51.16	
1551801614585.947	179.53	0.93	8.75	-0.02	0.01	-1.03	63.49	10.07	-51.23	
1551801614597.995	179.53	0.93	8.74	-0.02	0.01	-1.03	63.48	9.76	-51.28	
1551801614610.043	179.53	0.93	8.73	-0.02	0.01	-1.03	63.46	9.51	-51.33	
1551801614622.091	179.53	0.93	8.72	-0.02	0.01	-1.03	63.31	9.74	-51.36	
1551801614634.139	179.53	0.93	8.71	-0.02	0.01	-1.03	63.19	9.92	-51.39	
1551801614646.187	179.53	0.93	8.7	-0.02	0.01	-1.03	63.23	9.64	-51.14	
1551801614658.235	179.53	0.93	8.69	-0.02	0.01	-1.03	63.27	9.42	-50.94	
1551801614670.283	179.54	0.93	8.68	-0.02	0.01	-1.03	63.3	9.67	-51.05	
1551801614682.331	179.54	0.93	8.68	-0.02	0.01	-1.03	63.32	9.86	-51.14	
1551801614694.379	179.54	0.93	8.67	-0.02	0.01	-1.03	63.34	10.02	-50.8	
1551801614706.427	179.54	0.93	8.67	-0.02	0.01	-1.03	63.35	10.15	-50.53	
1551801614718.475	179.54	0.93	8.67	-0.02	0.01	-1.03	63.51	10.11	-50.59	
1551801614730.523	179.53	0.93	8.66	-0.02	0.01	-1.03	63.63	10.07	-50.63	
1551801614742.571	179.53	0.93	8.67	-0.01	0.01	-1.03	63.45	10.19	-50.67	
1551801614754.619	179.53	0.93	8.67	-0.02	0.01	-1.03	63.3	10.28	-50.7	
1551801614766.667	179.53	0.93	8.67	-0.02	0.01	-1.03	63.46	10.21	-50.59	
1551801614778.715	179.53	0.93	8.67	-0.02	0.01	-1.03	63.59	10.16	-50.49	
1551801614790.763	179.53	0.93	8.67	-0.02	0.01	-1.03	63.56	10.12	-50.56	
1551801614802.811	179.53	0.93	8.66	-0.02	0.01	-1.03	63.53	10.08	-50.61	
